AccelTime,PositionX,PositionY,PositionZ,VelocityX,VelocityY,VelocityZ,AccelerationX,AccelerationY,AccelerationZ
0.0,0.0,0.0,0.0001,0.0,0.0,0.0,0.0,0.0,0.0
0.01,0.0,0.0,0.0001,0.0,0.0,0.0,-0.001450299693181176,-0.0017680142784806696,60.62620573213572
0.02,0.0,0.0,0.0001,-1.450299693181176e-5,-1.7680142784806697e-5,0.6062620573213573,0.00011716939792250012,0.011709620856369682,60.618531549211035
0.03,-1.450299693181176e-7,-1.7680142784806697e-7,0.0061626205732135736,-1.3331302952586759e-5,9.941606577889013e-5,1.2124473728134677,0.000786194463301066,0.018407282817057835,60.615299975171304
0.04,-2.783429988439852e-7,8.173592299408343e-7,0.018287094301348252,-5.469358319576099e-6,0.0002834888939494685,1.818600372565181,-0.01601865155574772,-0.00048211379307205106,60.608125561822376
0.05,-3.330365820397462e-7,3.65224816943552e-6,0.036473098027000064,-0.0001656558738770533,0.000278667756018748,2.4246816281834045,0.011027302511889311,-0.0340265856527285,60.61928493828577
0.06,-1.9895953208102793e-6,6.438925729623e-6,0.06071991430883411,-5.5382848758160196e-5,-6.159810050853699e-5,3.0308744775662624,0.00234444072192753,0.0025056115174700846,60.622968143305556
0.07,-2.543423808391881e-6,5.82294472453763e-6,0.09102865908449673,-3.19384415388849e-5,-3.6541985333836145e-5,3.637104158999318,-0.00804236565909379,0.004193621975053137,60.5893533192187
0.08,-2.86280822378073e-6,5.457524871199269e-6,0.1273997006744899,-0.0001123620981298228,5.3942344166952254e-6,4.242997692191505,-0.00048724752441604505,-0.002732560984637628,60.57833743569789
0.09,-3.9864292050789575e-6,5.511467215366221e-6,0.16982967759640497,-0.00011723457337398324,-2.1931375429681057e-5,4.848781066548484,-0.014443832144385431,0.007712919561812918,60.59219009347863
0.1,-5.15877493881879e-6,5.2921534610694105e-6,0.2183174882618898,-0.00026167289481783757,5.519782018844813e-5,5.45470296748327,-0.005709634218221865,-0.0010826782212001672,60.57138047198471
0.11,-7.775503886997166e-6,5.844131662953892e-6,0.2728645179367225,-0.00031876923700005624,4.4371037976446456e-5,6.060416772203117,0.0005345136989185313,-0.009104061044718831,60.57119016252999
0.12,-1.0963196256997729e-5,6.287842042718356e-6,0.33346868565875365,-0.0003134241000108709,-4.666957247074186e-5,6.666128673828417,-0.013539365581429824,-0.016147928575488395,60.54775601460952
0.13,-1.4097437257106439e-5,5.8211463180109375e-6,0.40012997239703785,-0.00044881775582516917,-0.00020814885822562583,7.271606233974512,-0.00854689800713206,-0.011272565191592658,60.56434907430446
0.14,-1.8585614815358132e-5,3.739657735754679e-6,0.472846034736783,-0.0005342867358964897,-0.00032087451014155245,7.877249724717556,0.004324812094752327,-0.005447013186724382,111.70383345230078
0.15,-2.392848217432303e-5,5.309126343391543e-7,0.5516185319839586,-0.0004910386149489665,-0.0003753446420087963,8.994288059240564,0.00678950839775813,0.014071350275874089,111.68756915642868
0.16,-2.8838868323812695e-5,-3.2225337857488086e-6,0.6415614125763642,-0.0004231435309713852,-0.0002346311392500554,10.11116375080485,0.006666612036872964,0.002524089121796338,111.672584997992
0.17,-3.3070303633526545e-5,-5.568845178249362e-6,0.7426730500844128,-0.00035647741060265556,-0.00020939024803209202,11.22788960078477,0.00032415089153984617,0.00928446878714829,111.6353881365908
0.18,-3.66350777395531e-5,-7.662747658570282e-6,0.8549519460922604,-0.0003532359016872571,-0.00011654556016060912,12.344243482150679,-0.008359086402839791,-0.002099672565635413,111.57839076908407
0.19,-4.016743675642567e-5,-8.828203260176373e-6,0.9783943809137672,-0.000436826765715655,-0.00013754228581696324,13.46002738984152,-0.01729494728482944,-0.010652658708387108,111.5552735157361
0.2,-4.4535704413582226e-5,-1.0203626118346005e-5,1.1129946548121823,-0.0006097762385639494,-0.00024406887290083433,14.575580124998881,0.00520416148082467,-0.01248870111040016,111.50571504991379
0.21,-5.063346679922172e-5,-1.2644314847354347e-5,1.2587504560621712,-0.0005577346237557027,-0.00036895588400483593,15.69063727549802,-0.0010531183509793225,-0.0060995837819232965,111.46863399033357
0.22,-5.621081303677875e-5,-1.6333873687402706e-5,1.4156568288171514,-0.000568265807265496,-0.0004299517218240689,16.805323615401356,0.0005871681246131176,0.0005734983727188102,111.39825245345996
0.23,-6.18934711094337e-5,-2.0633390905643396e-5,1.5837100649711648,-0.0005623941260193648,-0.0004242167380968808,17.919306139935955,0.01441607883347272,-0.0039203755196971285,108.19901143796439
0.24,-6.751741236962735e-5,-2.4875558286612203e-5,1.7629031263705244,-0.0004182333376846376,-0.0004634204932938521,19.001296254315598,0.011932777812256372,-0.002599264979754137,108.13791117557325
0.25,-7.169974574647372e-5,-2.9509763219550725e-5,1.9529160889136803,-0.0002989055595620739,-0.0004894131430913935,20.08267536607133,-0.0034432099854694253,-0.010965012162264563,108.09026723086424
0.26,-7.468880134209446e-5,-3.440389465046466e-5,2.1537428425743936,-0.00033333765941676816,-0.0005990632647140391,21.163578038379974,0.0068356139867345855,0.018044393311581464,108.03077059208614
0.27,-7.802217793626214e-5,-4.0394527297605055e-5,2.3653786229581932,-0.0002649815195494223,-0.00041861933159822453,22.243885744300837,-0.006384786697990795,-0.013703798141821962,107.97206384758225
0.28,-8.067199313175636e-5,-4.45807206135873e-5,2.5878174804012017,-0.0003288293865293303,-0.0005556573130164441,23.32360638277666,0.005839979804782189,-0.004986937968778312,107.90931577486037
0.29,-8.396028699704966e-5,-5.013729374375174e-5,2.821053544228968,-0.0002704295884815084,-0.0006055266927042272,24.402699540525262,20.479823259712447,20.49341067950222,104.19497162077776
0.3,-8.666458288186475e-5,-5.619256067079401e-5,3.065080539634221,0.20452780300864298,0.20432858010231797,25.44464925673304,20.541487090673996,20.548208588979026,104.11373758930245
0.31,0.001958613447204565,0.0019870932403523857,3.3195270322015515,0.40994267391538297,0.40981066599210825,26.485786632626066,20.621476921924568,20.593528367031798,104.02925999427151
0.32,0.006058040186358395,0.006085199900273468,3.584384898527812,0.6161574431346286,0.6157459496624262,27.526079232568783,20.622347730377633,20.61447196786906,103.69056688445852
0.33,0.012219614617704681,0.01224265939689773,3.8596456908535,0.8223809204384049,0.8218906693411169,28.56298490141337,20.658556967293666,20.66205480099715,103.59034892093118
0.34,0.020443423822088733,0.0204615660903089,4.145275539867634,1.0289664901113416,1.0285112173510884,29.59888839062268,20.709850478072568,20.71685091397324,103.493571956245
0.35,0.03073308872320215,0.030746678263819785,4.441264423773861,1.2360649948920672,1.2356797264908208,30.63382411018513,20.743086140538143,20.770708555198976,103.39835592349982
0.36,0.04309373867212282,0.043103475528727994,4.747602664875712,1.4434958562974487,1.4433868120428106,31.667807669420128,20.82557428653056,20.804719984282862,103.27889749513315
0.37,0.057528697235097306,0.0575373436491561,5.064280741569914,1.6517515991627543,1.6514340118856392,32.70059664437146,20.847659681142286,20.83708539382751,103.17959538638856
0.38,0.07404621322672485,0.0740516837680125,5.391286708013629,1.860228195974177,1.8598048658239144,33.73239259823534,20.88682993124076,20.871989619150693,103.06100233451464
0.39,0.09264849518646662,0.09264973242625163,5.728610633995983,2.0690964952865847,2.0685247620154215,34.76300262158049,20.91823492497308,20.922062168029985,102.95394743851686
0.4,0.11333946013933247,0.11333498004640585,6.076240660211788,2.2782788445363154,2.2777453836957213,35.79254209596566,20.960211628653365,20.96312320443443,102.83695365259754
0.41,0.13612224858469563,0.13611243388336308,6.434166081171444,2.487880960822849,2.4873766157400654,36.82091163249164,21.01679787560778,21.00521984144566,102.81356918516545
0.42,0.16100105819292412,0.16098620004076375,6.80237519749636,2.6980489395789267,2.697428814154522,37.84904732434329,21.060577055670635,21.034863603219918,102.72004140808545
0.43,0.18798154758871338,0.18796048818230898,7.180865670739793,2.908654710135633,2.907777450186721,38.87624773842414,21.067523064348276,21.085406501989727,102.58682338897167
0.44,0.2170680946900697,0.2170382626841762,7.569628148124035,3.1193299407791155,3.1186315152066184,39.90211597231386,21.088674400862427,21.09504628215304,102.43989612710317
0.45,0.24826139409786085,0.24822457783624238,7.968649307847173,3.33021668478774,3.329581978028149,40.92651493358489,21.11078371949022,21.12662497871126,102.31753301479958
0.46,0.28156356094573826,0.28152039761652387,8.37791445718302,3.5413245219826424,3.5408482278152613,41.94969026373288,21.167804007472068,21.146473970217325,102.19162512924153
0.47,0.3169768061655647,0.3169288798946765,8.79741135982035,3.753002562057363,3.7523129675174345,42.9716065150253,21.18001395601877,21.187552297532665,102.06532489172652
0.48,0.3545068317861383,0.35445200956985085,9.227127424970602,3.9648027016175504,3.964188490492761,43.99225976394256,21.209769688612454,21.18580643342006,101.90290486262437
0.49,0.3941548588023138,0.39409389447477844,9.667050022610027,4.176900398503675,4.176046554826962,45.01128881256881,21.223215349602675,21.228370839947488,101.78752847513405
0.5,0.43592386278735057,0.43585436002304806,10.117162910735715,4.389132551999702,4.388330263226437,46.02916409732015,21.2514901190955,21.227157308158915,101.6436223544783
0.51,0.4798151883073476,0.4797376626553124,10.577454551708916,4.601647453190657,4.6006018363080265,47.04560032086493,21.371028714883426,21.390499552649075,102.1985739840036
0.52,0.5258316628392542,0.5257436810183926,11.047910554917566,4.815357740339492,4.814506831834517,48.06758606070496,21.397711728862173,21.403091164817056,102.06099598934392
0.53,0.5739852402426491,0.5738887493367378,11.528586415524616,5.029334857628113,5.028537743482688,49.0881960205984,21.41541115005993,21.428782046409218,101.91808459387754
0.54,0.6242785888189302,0.6241741267715647,12.0194683757306,5.2434889691287125,5.24282556394678,50.10737686653718,21.428805332162046,21.431987900526334,101.77238520046627
0.55,0.6767134785102173,0.6766023824110325,12.520542144395971,5.457777022450333,5.457145442952043,51.125100718541844,21.45562183249073,21.437828981130252,101.62574965224495
0.56,0.7312912487347207,0.7311738368405529,13.03179315158139,5.672333240775241,5.671523732763346,52.141358215064294,21.452200044392146,21.45272490109561,101.46229788580587
0.57,0.7880145811424731,0.7878890741681864,13.553206733732033,5.886855241219163,5.886050981774302,53.15598119392235,21.451582878768527,21.4648682249938,101.30516950742145
0.58,0.8468831335546647,0.8467495839859295,14.084766545671256,6.101371070006848,6.10069966402424,54.16903288899657,21.434457221771577,21.475284294549414,101.1713799069287
0.59,0.9078968442547332,0.9077565806261719,14.626456874561221,6.315715642224563,6.315452506969734,55.18074668806585,21.49049515489813,21.468051904872002,101.00687259961018
0.6,0.9710540006769788,0.9709111056958692,15.17826434144188,6.530620593773545,6.530133026018454,56.19081541406195,21.62835588628951,21.61121782013652,101.54494313344276
0.61,1.0363602066147142,1.0362124359560538,15.740172495582499,6.74690415263644,6.74624520421982,57.206264845396376,21.637103712533577,21.63197434724273,101.37628846472725
0.62,1.1038292481410785,1.103674887998252,16.312235144036464,6.9632751897617755,6.962564947692247,58.22002773004365,21.63231910903603,21.632847465178045,101.22420695780875
0.63,1.1734620000386964,1.1733005374751746,16.8944354213369,7.179598380852136,7.178893422344028,59.23226979962173,21.642557638226485,21.61779204019979,101.04698679012108
0.64,1.2452579838472178,1.245089471698615,17.486758119333118,7.396023957234401,7.395071342746026,60.24273966752294,21.645106556168265,21.628327275413167,100.8827802245387
0.65,1.3192182234195617,1.3190401851260751,18.089185516008346,7.612475022796083,7.611354615500158,61.251567469768325,21.618204540252652,21.646992415149967,100.70551117705253
0.66,1.3953429736475225,1.3951537312810767,18.70170119070603,7.82865706819861,7.827824539651657,62.25862258153885,21.612486862676324,21.64006096745383,100.54488905190424
0.67,1.4736295443295087,1.4734319766775932,19.32428741652142,8.044781936825373,8.044225149326195,63.26407147205789,21.63057221063637,21.628937394406677,100.35391858954242
0.68,1.5540773636977625,1.553874228170855,19.956928131241998,8.261087658931737,8.260514523270261,64.26761065795331,21.62263849212533,21.612550327513464,100.16843220097306
0.69,1.63668824028708,1.6364793734035576,20.59960423782153,8.47731404385299,8.476640026545397,65.26929497996305,21.900395759073064,21.894135185631686,101.37188018505245
0.7,1.7214613807256098,1.7212457736690117,21.25229718762116,8.696318001443721,8.695581378401714,66.28301378181358,21.88555363491129,21.90025093793518,101.16556306433239
0.71,1.808424560740047,1.8082015874530288,21.915127325439297,8.915173537792834,8.914583887781067,67.2946694124569,21.878875060914158,21.891027441877636,100.980357157618
0.72,1.8975762961179754,1.8973474263308394,22.588074019563866,9.133962288401975,9.133494162199844,68.30447298403308,21.88999599788026,21.88715023576863,100.77956204145148
0.73,1.9889159190019952,1.9886823679528378,23.271118749404195,9.352862248380777,9.35236566455753,69.3122686044476,21.876898723117403,21.86604100637559,100.57216245146091
0.74,2.082444541485803,2.0822060245984133,23.96424143544867,9.571631235611951,9.571026074621285,70.3179902289622,21.863389166001514,21.860182655205428,100.38059652931302
0.75,2.1781608538419226,2.1779162853446263,24.667421337738293,9.790265127271967,9.78962790117334,71.32179619425533,21.858612907453352,21.86963179556537,100.18363602216682
0.76,2.2760635051146423,2.2758125643563596,25.380639299680848,10.008851256346501,10.008324219128994,72.323632554477,21.845360675481626,21.827147321218963,99.98898556312142
0.77,2.3761520176781072,2.3758958065476494,26.10387562522562,10.227304863101317,10.226595692341183,73.32352241010821,21.829728975141904,21.8369375748351,99.77506958680935
0.78,2.4784250663091205,2.478161763471061,26.837110849326702,10.445602152852736,10.444965068089534,74.3212731059763,22.083787154485847,22.080441916149127,100.90031666367695
0.79,2.582881087837648,2.5826114141519563,27.580323580386466,10.666440024397595,10.665769487251024,75.33027627261308,22.065259972340286,22.090320902725423,100.70317970279311
0.8,2.689545488081624,2.6892691090244667,28.3336263431126,10.887092624120998,10.886672696278278,76.33730806964101,22.05664414997508,22.052915807213786,100.48792307047961
0.81,2.798416414322834,2.7981358359872495,29.09699942380901,11.107659065620748,11.107201854350416,77.34218730034581,22.047999190166347,22.01556041591675,100.2390950533236
0.82,2.9094930049790415,2.9092078545307536,29.870421296812466,11.328139057522412,11.327357458509583,78.34457825087905,22.016084822660353,22.021206629150004,100.02888334301338
0.83,3.022774395554266,3.0224814291158495,30.65386707932126,11.548299905749015,11.547569524801084,79.34486708430919,21.992433294385116,22.013295083763516,99.81627934140944
0.84,3.138257394611756,3.13795712436386,31.44731575016435,11.768224238692866,11.76770247563872,80.34302987772328,21.987489923294355,21.98517939934538,99.59861061877626
0.85,3.2559396369986846,3.2556341491202474,32.25074604894158,11.98809913792581,11.987554269632174,81.33901598391104,21.96083111815168,21.966827831735344,99.37465967882909
0.86,3.3758206283779426,3.375509691816569,33.06413620878069,12.207707449107327,12.207222547949527,82.33276258069932,21.949996538287287,21.960433723181982,99.14443508069195
0.87,3.497897702869016,3.4975819172960643,33.887463834587685,12.4272074144902,12.426826885181347,83.32420693150624,22.05496938983183,22.046526605588607,99.45751435033247
0.88,3.622169777013918,3.621850186147878,34.72070590390275,12.647757108388518,12.647292151237233,84.31878207500957,22.00678398596026,22.020889726118096,99.23546859196225
0.89,3.748647348097803,3.74832310766025,35.56389372465284,12.86782494824812,12.867501048498413,85.31113676092919,21.972457397940705,21.98940101477198,98.99467069189873
0.9,3.8773255975802843,3.8769981181452344,36.41700509226214,13.087549522227528,13.087395058646132,86.30108346784817,21.966633498864315,21.972492399550568,98.7480874769652
0.91,4.00820109280256,4.007872068731696,37.28001592694062,13.307215857216171,13.307119982641638,87.28856434261783,21.92553412112611,21.955287526453997,98.51170855453252
0.92,4.141273251374722,4.140943268558112,38.1529015703668,13.526471198427432,13.526672857906178,88.27368142816316,21.939396961563947,21.906373587684428,98.25873945416761
0.93,4.276537963358996,4.276209997137173,39.03563838464843,13.745865168043071,13.745736593783022,89.25626882270484,21.88591655579329,21.89357731083247,98.01681682667562
0.94,4.413996615039427,4.413667363075004,39.928201072875474,13.964724333601005,13.964672366891346,90.2364369909716,21.878610014278973,21.870400591396603,97.75709836648286
0.95,4.5536438583754375,4.553314086743917,40.83056544278519,14.183510433743795,14.183376372805313,91.21400797463643,21.8448604432049,21.850561048796383,97.5403721032324
0.96,4.695478962712875,4.695147850471971,41.74270552253156,14.401959038175844,14.401881983293277,92.18941169566875,21.826816151180868,21.84039397385569,97.35368623116153
0.97,4.839498553094634,4.839166670304904,42.664599639488245,14.620227199687653,14.620285923031835,93.16294855798037,21.790856090712385,21.79727038810174,97.1227672521171
0.98,4.98570082509151,4.985369529535222,43.59622912506805,14.838135760594778,14.838258626912852,94.13417623050154,21.775069259047548,21.775715191848576,96.85599063712438
0.99,5.134082182697458,5.13375211580435,44.537570887373064,15.055886453185254,15.056015778831338,95.10273613687278,21.736085324980756,21.752244029023498,96.61429790566235
1.0,5.284641047229311,5.284312273592664,45.488598248741795,15.273247306435062,15.273538219121573,96.0688791159294,21.718849617493195,21.702202097703925,96.34474369539512
1.01,5.4373735202936615,5.437047655783879,46.44928703990109,15.490435802609994,15.490560240098612,97.03232655288336,21.704053773747763,21.669430351061525,96.11367146394505
1.02,5.592277878319761,5.591953258184866,47.41961030542992,15.707476340347473,15.707254543609228,97.99346326752281,21.641805178880485,21.66570168146453,95.81377624163171
1.03,5.7493526417232355,5.749025803620958,48.39954493810515,15.923894392136278,15.923911560423873,98.95160102993913,21.634571740901844,21.618134645929807,95.5886027037781
1.04,5.908591585644598,5.908264919225196,49.38906094840454,16.140240109545296,16.140092906883172,99.9074870569769,21.597874911438645,21.588535524164815,95.29764804285172
1.05,6.069993986740051,6.069665848294028,50.38813581897431,16.356218858659684,16.35597826212482,100.86046353740542,21.522042673616745,21.516844070501218,94.83432758357505
1.06,6.2335561753266475,6.2332256309152765,51.39674045434837,16.57143928539585,16.571146702829832,101.80880681324118,21.46988747082742,21.480507781081073,94.55512166139465
1.07,6.399270568180606,6.398937097943575,52.41482852248078,16.786138160104127,16.785951780640644,102.75435802985513,21.43935865443525,21.422292106369806,94.29361844678432
1.08,6.567131949781648,6.566796615749982,53.44237210277933,17.00053174664848,17.000174701704342,103.69729421432297,21.403920326701577,21.382091746490484,94.03637545010483
1.09,6.737137267248133,6.736798362767026,54.47934504492256,17.214570949915498,17.213995619169246,104.63765796882402,21.3891544130773,21.385140716183287,93.75352468066646
1.1,6.909282976747288,6.908938318958718,55.5257216246108,17.428462494046272,17.42784702633108,105.57519321563068,21.334228302883723,21.326626761650683,93.49094706371028
1.11,7.083567601687751,7.083216789222029,56.58147355676711,17.64180477707511,17.641113293947587,106.51010268626779,21.28169341533586,21.300450617653997,93.24177026689317
1.12,7.2599856494585016,7.259627922161505,57.646574583629786,17.854621711228468,17.854117800124126,107.44252038893671,21.25467075941803,21.249432305550684,92.96338800905731
1.13,7.438531866570786,7.438169100162747,58.720999787519155,18.06716841882265,18.06661212317963,108.37215426902729,21.232603341163856,21.219283764671715,92.66601732177237
1.14,7.619203550759012,7.618835221394543,59.804721330209425,18.27949445223429,18.27880496082635,109.29881444224502,21.188058941119547,21.17865615808325,92.39554167333105
1.15,7.801998495281355,7.801623271002807,60.897709474631874,18.491375041645483,18.490591522407183,110.22276985897832,21.033739575530248,21.029881021920673,91.56096620545814
1.16,7.98691224569781,7.986529186226879,61.99993717322166,18.701712437400786,18.70089033262639,111.1383795210329,20.994780426099112,20.98806148559819,91.27022118193291
1.17,8.173929370071818,8.173538089553142,63.11132096843199,18.911660241661778,18.910770947482373,112.05108173285223,20.942820765415863,20.93624969690972,91.01101303540854
1.18,8.363045972488436,8.362645799027966,64.2318317857605,19.121088449315938,19.12013344445147,112.96119186320631,20.92949073854655,20.886700307423272,90.73321239244969
1.19,8.554256856981596,8.55384713347248,65.36144370439257,19.330383356701404,19.3290004475257,113.8685239871308,20.87463178148273,20.853067853943912,90.45048750865105
1.2,8.74756069054861,8.747137137947737,66.50012894426388,19.539129674516232,19.53753112606514,114.77302886221732,20.827235810096067,20.837604920851277,90.16442071424845
1.21,8.942951987293773,8.942512449208389,67.64785923288605,19.74740203261719,19.745907175273654,115.6746730693598,20.784547303487805,20.796391066103293,89.8889181863153
1.22,9.140426007619945,9.139971520961126,68.80460596357965,19.95524750565207,19.953871085934686,116.57356225122295,20.728788929162732,20.73126025883579,89.61587934777032
1.23,9.339978482676466,9.339510231820473,69.97034158609188,20.1625353949437,20.161183688523046,117.46972104470066,20.695632785531593,20.69657938212773,89.3107833294151
1.24,9.541603836625903,9.541122068705704,71.14503879653888,20.369491722799015,20.36814948234432,118.36282887799482,20.25841323310927,20.265293903788887,87.09173492926327
1.25,9.745298753853893,9.744803563529148,72.32866708531883,20.57207585513011,20.57080242138221,119.23374622728745,20.211583870697428,20.216754879588347,86.8089784156237
1.26,9.951019512405194,9.95051158774297,73.5210045475917,20.774191693837082,20.772969970178096,120.1018360114437,20.18121193400603,20.16264751760319,86.51018119061183
1.27,10.158761429343565,10.158241287444751,74.72202290770613,20.976003813177144,20.974596445354127,120.96693782334981,20.11036611480433,20.157638138262076,86.23076710982724
1.28,10.368521467475336,10.367987251898292,75.93169228593963,21.177107474325187,21.176172826736746,121.82924549444809,20.06447807456428,20.092474069338984,85.95533492765954
1.29,10.580292542218588,10.57974898016566,77.14998474088411,21.377752255070828,21.377097567430134,122.68879884372468,20.0444517000835,20.031212733968058,85.67153961656862
1.3,10.794070064769297,10.79351995583996,78.37687272932135,21.578196772071664,21.577409694769816,123.54551423989037,19.998309521408753,19.991162369929224,85.38702102172908
1.31,11.009852032490013,11.009294052787657,79.61232787172025,21.77817986728575,21.77732131846911,124.39938445010766,19.957726482498504,19.962328529741672,85.09428289035591
1.32,11.227633831162871,11.227067265972348,80.85632171622133,21.977757132110735,21.976944603766526,125.25032727901122,19.908473148084884,19.90347076973775,84.82737584918823
1.33,11.447411402483977,11.446836712010013,82.10882498901144,22.176841863591584,22.175979311463905,126.0986010375031,19.67899344786227,19.6593592347172,83.56390976259085
1.34,11.669179821119894,11.668596505124652,83.36981099938647,22.373631798070207,22.372572903811076,126.93424013512902,19.596447696109323,19.61881595991422,83.28912903694977
1.35,11.892916139100596,11.892322234162764,84.63915340073777,22.5695962750313,22.568761063410218,127.76713142549852,19.563555978856524,19.572160750743837,82.99396186756614
1.36,12.118612101850909,12.118009844796866,85.91682471499276,22.76523183481987,22.764482670917655,128.59707104417419,19.517546033215925,19.530346680993723,82.70472184049049
1.37,12.346264420199107,12.345654671506043,87.2027954254345,22.960407295152027,22.95978613772759,129.4241182625791,19.476818702856164,19.486277198987953,82.41513138482179
1.38,12.575868493150628,12.575252532883319,88.4970366080603,23.15517548218059,23.15464890971747,130.2482695764273,19.441161419146027,19.435934697754302,82.12681150062615
1.39,12.807420247972434,12.806799021980494,89.79951930382457,23.349587096372048,23.34900825669501,131.06953769143357,19.390033937752406,19.383395837670076,81.85642368257962
1.4,13.040916118936154,13.040289104547444,91.1102146807389,23.543487435749572,23.542842215071712,131.88810192825937,19.347122213189245,19.336920348019866,81.56464819692061
1.41,13.27635099329365,13.27571752669816,92.4290957000215,23.736958657881466,23.73621141855191,132.70374841022857,19.26864095831214,19.28119254480295,81.25088754902605
1.42,13.513720579872466,13.51307964088368,93.7561331841238,23.929645067464588,23.92902334399994,133.51625728571884,18.716702913583116,18.729058787161254,78.5966034146707
1.43,13.753017030547111,13.75236987432368,95.09129575698098,24.11681209660042,24.116313931871552,134.30222331986553,18.7003006275291,18.71466330614017,78.33725863467303
1.44,13.994185151513115,13.993533013642395,96.43431799017964,24.30381510287571,24.303460564932955,135.08559590621226,18.634553866273794,18.655325460131362,78.03874751888178
1.45,14.237223302541873,14.236567619291725,97.78517394924175,24.49016064153845,24.49001381953427,135.8659833814011,18.57262553102028,18.607411248485608,77.74324929464267
1.46,14.482124908957257,14.481467757487067,99.14383378305577,24.675886896848652,24.676087932019126,136.6434158743475,18.54881005183799,18.548033028061205,77.46214857891039
1.47,14.728883777925743,14.728228636807259,100.51026794179924,24.861374997367033,24.861568262299738,137.41803736013662,18.502983529149265,18.53176894409529,77.16535957788017
1.48,14.977497527899413,14.976844319430256,101.8844483154006,25.046404832658524,25.04688595174069,138.18969095591544,18.456365639800907,18.45927709120132,76.87628073277178
1.49,15.227961576225997,15.227313178947663,103.26634522495976,25.230968489056533,25.231478722652703,138.95845376324314,18.414784110868563,18.404794562341618,76.60327123014838
1.5,15.480271261116563,15.47962796617419,104.6559297625922,25.41511633016522,25.41552666827612,139.72448647554464,18.37255671762405,18.35795888114733,76.30409663048165
1.51,15.734422424418215,15.733783232856952,106.05317462734764,25.598841897341458,25.59910625708759,140.48752744184947,17.900614161905164,17.905570421875613,74.1549874377734
1.52,15.99041084339163,15.989774295427829,107.45804990176615,25.77784803896051,25.778161961306346,141.2290773162272,17.86105712814219,17.844568389054434,73.84917312748293
1.53,16.248189323781233,16.24755591504089,108.87034067492841,25.95645861024193,25.95660764519689,141.96756904750202,17.818145674599833,17.79663287121709,73.57611312157735
1.54,16.507753909883654,16.50712199149286,110.29001636540343,26.13464006698793,26.13457397390906,142.7033301787178,17.757430762989802,17.787159097524665,73.27156385384168
1.55,16.769100310553533,16.76846773123195,111.71704966719061,26.312214374617827,26.312445564884307,143.43604581725623,17.71949310763161,17.70305808241406,73.0203292194014
1.56,17.03222245429971,17.031592186880793,113.15141012536317,26.489409305694142,26.489476145708448,144.16624910945023,17.65353540649196,17.671201562034973,72.72801187674034
1.57,17.29711654735665,17.29648694833788,114.59307261645768,26.665944659759063,26.666188161328797,144.89352922821763,17.62211334841446,17.595757331507055,72.43603382435005
1.58,17.56377599395424,17.563148829951167,116.04200790873985,26.842165793243208,26.842145734643868,145.61788956646114,17.58414271177892,17.579127096718658,72.17332980084848
1.59,17.832197651886673,17.831570287297605,117.49818680440445,27.018007220360996,27.017937005611053,146.33962286446962,17.513745807354173,17.521954041685948,71.87816875976262
1.6,18.10237772409028,18.101749657353714,118.96158303304915,27.19314467843454,27.19315654602791,147.05840455206723,16.8589875074803,16.86319368918109,68.72980795951466
1.61,18.37430917087463,18.373681222813993,120.43216707856982,27.361734553509343,27.36178848291972,147.74570263166237,16.80957497140199,16.816283867821387,68.45168857527193
1.62,18.647926516409722,18.64729910764319,121.90962410488645,27.529830303223363,27.529951321597935,148.43021951741508,16.76082417456989,16.76297023911222,68.19019707832246
1.63,18.923224819441955,18.92259862085917,123.3939263000606,27.697438544969064,27.697581023989056,149.1121214881983,16.723896119977717,16.71544714572975,67.92057283874902
1.64,19.200199204891646,19.19957443109906,124.88504751494258,27.864677506168842,27.864735495446354,149.7913272165858,16.668898717217456,16.65864378190858,67.66589007368712
1.65,19.478845979953334,19.478221786053524,126.38296078710844,28.031366493341018,28.03132193326544,150.46798611732268,16.621267015267964,16.620028562589816,67.40671351486318
1.66,19.759159644886743,19.75853500538618,127.88764064828167,28.197579163493696,28.197522218891336,151.1420532524713,16.565988446351533,16.566622287944227,67.08374539819634
1.67,20.04113543652168,20.04051022757509,129.3990611808064,28.36323904795721,28.363188441770777,151.81289070645326,16.519891829349422,16.516865046374207,66.84207178773742
1.68,20.324767827001253,20.3241421119928,130.91719008787092,28.528437966250706,28.52835709223452,152.48131142433064,16.46825688551647,16.48657184184818,66.59588881959905
1.69,20.61005220666376,20.609425682915145,132.44200320211422,28.69312053510587,28.693222810653,153.14727031252664,15.775638644532291,15.775164078669441,63.255663248533544
1.7,20.89698341201482,20.896357911021674,133.9734759052395,28.850876921551194,28.850974451439697,153.779826945012,15.72842025689537,15.72599196661609,62.98276829335141
1.71,21.18549218123033,21.18486765553607,135.51127417468962,29.008161124120146,29.008234371105857,154.4096546279455,15.675446427802402,15.682458113039855,62.705281237265126
1.72,21.475573792471533,21.47494999924713,137.05537072096908,29.16491558839817,29.165058952236254,155.03670744031817,15.635230698007463,15.661322656217083,62.47641220947057
1.73,21.767222948355514,21.766600588769492,138.60573779537225,29.321267895378245,29.321672178798426,155.66147156241288,15.573376340716461,15.610159809693604,62.21831456651422
1.74,22.060435627309296,22.059817310557477,140.16235251099639,29.477001658785408,29.47777377689536,156.28365470807802,15.531908978138336,15.551831857400039,61.96321794985128
1.75,22.35520564389715,22.35459504832643,141.72518905807718,29.63232074856679,29.63329209546936,156.90328688757654,15.503535885730928,15.508274061695516,61.708058953654565
1.76,22.651528851382817,22.650927969281124,143.29422192695293,29.7873561074241,29.788374836086316,157.5203674771131,15.46275189553005,15.441634076810473,61.452759533641114
1.77,22.949402412457058,22.948811717641988,144.86942560172406,29.9419836263794,29.94279117685442,158.1348950724495,15.393068502737108,15.405569192904078,61.1790412343078
1.78,23.248822248720852,23.24823962941053,146.45077455244856,30.095914311406773,30.096846868783462,158.74668548479258,14.524352109085585,14.511603701539252,57.06482592886351
1.79,23.54978139183492,23.549208098098365,148.03824140729648,30.241157832497628,30.241962905798854,159.31733374408122,14.494698387784172,14.493703506829071,56.810799512672716
1.8,23.852192970159894,23.851627727156355,149.6314147447373,30.386104816375468,30.386899940867146,159.88544173920795,14.439588166626987,14.414865271750777,56.59293311260857
1.81,24.156054018323648,24.155496726565026,151.2302691621294,30.530500698041738,30.531048593584654,160.45137107033403,14.389720796874853,14.383380407662035,56.356531255702166
1.82,24.461359025304066,24.46080721250087,152.83478287283273,30.674397906010487,30.674882397661275,161.01493638289105,14.353722165251597,14.333641121259506,56.113889588884675
1.83,24.76810300436417,24.767556036477483,154.44493223666166,30.817935127663002,30.81821880887387,161.5760752787799,14.313463575424523,14.316968012423496,55.86158940640901
1.84,25.076282355640803,25.075738224566223,156.06069298944945,30.961069763417246,30.961388488998104,162.13469117284401,14.24944603936826,14.259172193382092,55.623047255757506
1.85,25.385893053274977,25.385352109456203,157.6820399011779,31.103564223810928,31.103980210931926,162.6909216454016,14.226448053395377,14.202978768633988,55.37704079893213
1.86,25.696928695513087,25.696391911565524,159.3089491176319,31.24582870434488,31.246009998618266,163.24469205339093,14.18216336333499,14.17419771957501,55.14895701822791
1.87,26.009386982556535,26.008852011551706,160.9413960381658,31.38765033797823,31.387751975814016,163.7961816235732,14.135902028313765,14.128242008371448,54.92225572401947
1.88,26.323263485936316,26.322729531309847,162.57935785440154,31.529009358261366,31.52903439589773,164.3454041808134,6.06204863524379,6.064488614055348,17.95341173215138
1.89,26.63855357951893,26.638019875268824,164.22281189620966,31.589629844613803,31.589679282038286,164.5249382981349,6.0448337009245465,6.0523808355019915,17.842651452638407
1.9,26.954449877965068,26.953916668089207,165.868061279191,31.650078181623048,31.650203090393305,164.7033648126613,6.030071633103117,6.05138093830631,17.781781774096288
1.91,27.2709506597813,27.27041869899314,167.51509492731762,31.71037889795408,31.71071689977637,164.88118263040226,6.018514455149659,6.01082195293792,17.7047094895755
1.92,27.58805444876084,27.587525867990905,169.16390675362163,31.770564042505576,31.770825119305748,165.05822972529802,6.016112802401688,5.994203846091815,17.621857141786446
1.93,27.905760089185897,27.905234119183962,170.8144890508746,31.830725170529593,31.830767157766665,165.2344482967159,5.997939913226451,5.986633803781834,17.56559010326393
1.94,28.224067340891192,28.22354179076163,172.46683353384176,31.890704569661857,31.890633495804483,165.41010419774852,5.97885873418144,5.9767492954983075,17.47429971543845
1.95,28.54297438658781,28.542448125719673,174.12093457581926,31.95049315700367,31.950400988759466,165.58484719490292,5.962220500868575,5.963092161073702,17.399899879093788
1.96,28.86247931815785,28.861952135607268,175.7767830477683,32.01011536201236,32.0100319103702,165.75884619369387,5.953401780196812,5.948151906453714,17.33231999280014
1.97,29.18258047177797,29.18205245471097,177.43437150970524,32.06964937981432,32.06951342943474,165.93216939362188,-1.0297891004619102,-1.0444471925991992,-14.551052888903875
1.98,29.503276965576113,29.502747589005317,179.09369320364146,32.0593514888097,32.05906895750875,165.78665886473283,-1.0073215520038725,-1.0499427100710996,-14.479255803935265
1.99,29.82387048046421,29.823338278580405,180.7515597922888,32.049278273289666,32.04856953040804,165.6418663066935,-1.0215215000544269,-1.0019727205068552,-14.422286340522739
2.0,30.144363263197103,30.143823973884484,182.40797845535573,32.03906305828912,32.03854980320297,165.49764344328827,-1.0024249379789234,-0.9971333895983555,-14.346831632401194
2.01,30.464753893779996,30.46420947191651,184.0629548897886,32.029038808909334,32.028578469306986,165.35417512696426,-0.9753335848881777,-0.9702668713148034,-14.272567927040788
2.02,30.78504428186909,30.78449525660958,185.71649664105826,32.01928547306045,32.01887580059384,165.21144944769387,-0.9806153490249238,-0.9647024137021917,-14.207758844547838
2.03,31.105237136599694,31.10468401461552,187.3686111355352,32.0094793195702,32.009228776456816,165.06937185924838,-0.955664856188942,-0.9629105448765117,-14.129387699992462
2.04,31.425331929795394,31.424776302380085,189.01930485412768,31.999922671008306,31.99959967100805,164.92807798224845,-0.9355288750388157,-0.9235984836693398,-14.072999309161766
2.05,31.74533115650548,31.744772299090165,190.66858563395016,31.990567382257918,31.990363686171357,164.78734798915684,-0.9045986756937201,-0.9237292888369271,-14.009696238016137
2.06,32.06523683032806,32.064675935951875,192.31645911384172,31.98152139550098,31.981126393282988,164.64725102677667,-5.212158274399252,-5.191673488185919,-33.36676208402444
2.07,32.38505204428307,32.3844871998847,193.96293162410947,31.929399812756987,31.929209658401128,164.31358340593644,-5.17944869318492,-5.178136152407751,-33.221696551749524
2.08,32.70434604241064,32.70377929646872,195.60606745816884,31.877605325825137,31.87742829687705,163.98136644041895,-5.1461762016412935,-5.139685232172711,-33.06591186394647
2.09,33.023122095668896,33.022553579437485,197.24588112257302,31.826143563808724,31.826031444555323,163.6507073217795,-5.120790144197531,-5.093168925412415,-32.92055653517245
2.1,33.34138353130698,33.34081389388304,198.8823881957908,31.774935662366747,31.7750997553012,163.32150175642778,-5.089968615411406,-5.088340357354956,-32.78130154788528
2.11,33.659132887930646,33.65856489143605,200.5156032133551,31.724035976212633,31.724216351727648,162.99368874094893,-5.050334154233956,-5.044838310500514,-32.626158382938904
2.12,33.97637324769277,33.97580705495333,202.14554010076458,31.673532634670295,31.67376796862264,162.66742715711953,-5.0322768266165605,-5.0140899406265556,-32.48370823908639
2.13,34.29310857403947,34.292544734639556,203.77221437233578,31.623209866404128,31.623627069216376,162.34259007472866,-4.996483393054537,-4.997137956538609,-32.33935502861053
2.14,34.60934067270351,34.60878100533172,205.39564027308307,31.573245032473583,31.57365568965099,162.01919652444255,-4.955661939910691,-4.964949784650304,-32.19637465660349
2.15,34.92507312302825,34.92451756222823,207.0158322383275,31.523688413074478,31.52400619180449,161.6972327778765,-7.314171665839148,-7.330948481551214,-42.72440837706999
2.16,35.240310007158996,35.23975762414628,208.63280456610627,31.450546696416087,31.45069670698898,161.26998869410582,-7.2829290367588815,-7.279114572346945,-42.565862042406415
2.17,35.55481547412316,35.55426459121617,210.24550445304732,31.377717406048497,31.377905561265507,160.84433007368176,-7.243908581083713,-7.211295603034117,-42.387240766441074
2.18,35.86859264818364,35.86804364682882,211.85394775378413,31.305278320237658,31.305792605235165,160.42045766601734,-7.192616364853917,-7.197996691470538,-42.20403495718014
2.19,36.181645431386016,36.181101572881175,213.4581523304443,31.23335215658912,31.23381263832046,159.99841731644554,-7.181022433153699,-7.167615786259935,-42.002753487053276
2.2,36.493978952951906,36.49343969926438,215.05813650360875,31.161541932257585,31.162136480457864,159.578389781575,-7.130431206840682,-7.138957279453179,-41.818691728705716
2.21,36.805594372274484,36.80506106406896,216.6539204014245,31.09023762018918,31.09074690766333,159.16020286428795,-7.105961806431805,-7.0891461658032995,-41.64333359473728
2.22,37.11649674847638,37.11596853314559,218.24552243006738,31.01917800212486,31.019855446005298,158.74376952834058,-7.065591234907589,-7.065548085768963,-41.47127242790718
2.23,37.42668852849763,37.42616708760564,219.83296012535078,30.948522089775786,30.94919996514761,158.3290568040615,-7.0060944496255395,-7.030764823680789,-41.30496721300831
2.24,37.736173749395384,37.73565908725712,221.4162506933914,30.87846114527953,30.878892316910804,157.91600713193142,-7.12966942960926,-7.120888384298814,-41.755590615617116
2.25,38.04495836084818,38.04444801042623,222.9954107647107,30.80716445098344,30.807683433067815,157.49845122577526,-7.111196927672438,-7.09119555921657,-41.576643752133094
2.26,38.353030005358015,38.35252484475691,224.57039527696844,30.736052481706714,30.73677147747565,157.0826847882539,-7.049387779856356,-7.06914355852531,-41.41091822929706
2.27,38.66039053017508,38.65989255953166,226.14122212485097,30.66555860390815,30.666080041890396,156.66857560596094,-7.020480431285183,-7.024687126778771,-41.22236597171465
2.28,38.96704611621416,38.96655335995057,227.70790788091057,30.595353799595298,30.59583317062261,156.2563519462438,-7.000156379486917,-6.991304726716678,-41.07250769272057
2.29,39.27299965421012,39.272511691656796,229.270471400373,30.52535223580043,30.52592012335544,155.8456268693166,-6.93973010805977,-6.940935224009197,-40.88018217080082
2.3,39.57825317656812,39.57777089289035,230.82892766906616,30.45595493471983,30.456510771115347,155.43682504760858,-6.922909020391371,-6.909223033116563,-40.71210941079982
2.31,39.882812725915315,39.882336000601505,232.38329591954223,30.386725844515915,30.387418540784182,155.0297039535006,-6.889430478040201,-6.891755767288118,-40.53532484229799
2.32,40.186679984360474,40.18621018600935,233.93359295907723,30.317831539735515,30.3185009831113,154.6243507050776,-6.851439410636887,-6.870056157173753,-40.349070400026186
2.33,40.48985829975783,40.48939519584046,235.479836466128,30.249317145629146,30.24980042153956,154.22086000107734,-6.899989983536038,-6.895153095119659,-40.62258628994096
2.34,40.79235147121412,40.79189320005585,237.0220450661388,30.180317245793784,30.180848890588365,153.81463413817792,-7.702275054508348,-7.699326939742016,-44.1200623554996
2.35,41.094154643672056,41.09370168896174,238.56019140752056,30.1032944952487,30.103855621190945,153.37343351462292,-7.664562020157412,-7.6564665726645025,-43.907935480031384
2.36,41.395187588624545,41.394740245173644,240.09392574266678,30.026648875047126,30.0272909554643,152.9343541598226,-7.619452400583219,-7.63009783099272,-43.72804764552062
2.37,41.69545407737502,41.69501315472829,241.623269284265,29.950454351041294,29.95098997715437,152.49707368336738,-7.570085096572459,-7.5960439055028015,-43.50222123839949
2.38,41.994958620885434,41.99452305449983,243.14824002109867,29.87475350007557,29.875029538099344,152.0620514709834,-7.532301393351767,-7.545412641132876,-43.29456359442428
2.39,42.29370615588619,42.29327334988082,244.6688605358085,29.799430486142054,29.799575411688014,151.62910583503916,-7.512265984174221,-7.4873346869609305,-43.11873752431109
2.4,42.59170046074761,42.5912691039977,246.1851515941589,29.72430782630031,29.724702064818405,151.19791845979606,-7.471889529619181,-7.4722963901647805,-42.90774378968295
2.41,42.88894353901061,42.88851612464589,247.69713077875684,29.649588931004118,29.649979100916756,150.76884102189922,-7.433471051422272,-7.432336784781552,-42.717144364281154
2.42,43.185439428320656,43.18501591565506,249.20481918897585,29.575254220489896,29.575655733068942,150.34166957825641,-7.384235856613237,-7.380557080834726,-42.534312800017965
2.43,43.48119197052556,43.48077247298575,250.7082358847584,29.501411861923764,29.501850162260595,149.91632645025624,-7.3285306850021215,-7.346955935909936,-42.33357320799025
2.44,43.77620608914479,43.775790974608356,252.20739914926097,29.428126555073742,29.428380602901495,149.49299071817634,-7.317759041526515,-7.311748932913964,-42.1491148636979
2.45,44.07048735469553,44.07007478063737,253.70232905644272,29.354948964658476,29.355263113572356,149.07149956953936,-7.254247295627814,-7.272644800712988,-41.96790935224831
2.46,44.36403684434212,44.363627411773095,255.1930440521381,29.282406491702197,29.282536665565225,148.65182047601687,-7.251547524024467,-7.231313023042049,-41.78752340920927
2.47,44.65686090925914,44.65645277842875,256.6795622568983,29.209891016461953,29.210223535334805,148.23394524192477,-7.212780619656998,-7.219005893804769,-41.60472257180995
2.48,44.948959819423756,44.9485550137821,258.16190170931753,29.137763210265383,29.138033476396757,147.81789801620667,-7.151858996393412,-7.15955457990911,-41.40306531475473
2.49,45.24033745152641,45.23993534854606,259.6400806894796,29.06624462030145,29.066437930597665,147.40386736305913,-7.128242751193202,-7.121409077404366,-41.220969532445665
2.5,45.53099989772942,45.53059972785204,261.1141193631102,28.99496219278952,28.995223839823623,146.99165766773467,-7.097156672377605,-7.108774312167877,-41.04137445199365
2.51,45.82094951965732,45.82055196625028,262.58403593978755,28.92399062606574,28.924136096701943,146.58124392321474,-7.046862506986234,-7.054779594643637,-40.85345051773193
2.52,46.11018942591797,46.1097933272173,264.0498483790197,28.85352200099588,28.853588300755508,146.1727094180374,-7.015590629202325,-7.004632781667607,-40.67184248970847
2.53,46.398724645927935,46.39832921022485,265.5115754732001,28.783366094703858,28.78354197293883,145.76599099314032,-7.013877097067229,-6.978529991588813,-40.51026446143058
2.54,46.68655830687497,46.68616462995424,266.9692353831315,28.713227323733186,28.713756673022942,145.360888348526,-6.9318005223206915,-6.938301336160832,-40.33730246000737
2.55,46.973690580112304,46.97330219668447,268.4228442666168,28.64390931850998,28.644373659661333,144.95751532392592,-6.9271154369781085,-6.893722459937914,-40.15376075078067
2.56,47.260129673297406,47.25974593328109,269.87241941985604,28.5746381641402,28.575436435061953,144.5559777164181,-6.868029883272697,-6.869472852356849,-39.99732665401466
2.57,47.54587605493881,47.545500297631705,271.31797919702024,28.505957865307472,28.506741706538385,144.15600444987797,-6.850629345387048,-6.854348282409908,-39.810283710230436
2.58,47.830935633591885,47.83056771469709,272.759539241519,28.4374515718536,28.438198223714284,143.75790161277567,-6.814808798628629,-6.820971459523896,-39.655113552621636
2.59,48.11531014931042,48.11494969693423,274.19711825764676,28.369303483867313,28.369988509119047,143.36135047724946,-6.766399398215327,-6.794780792277455,-39.47914755138806
2.6,48.39900318414909,48.39864958202542,275.63073176241926,28.301639489885158,28.302040701196272,142.9665590017356,-6.731894754212903,-6.746233337649651,-39.2897035129325
2.61,48.68201957904794,48.68166998903738,277.0603973524366,28.234320542343028,28.234578367819775,142.57366196660627,-6.703016395037997,-6.722070112203619,-39.117810812043395
2.62,48.96436278447137,48.96401577271558,278.48613397210266,28.167290378392646,28.16735766669774,142.18248385848582,-6.680108877958054,-6.668743176833973,-38.97632230637911
2.63,49.2460356882553,49.24568934938255,279.90795881068755,28.100489289613066,28.1006702349294,141.79272063542203,-6.6358618411076575,-6.659726117337235,-38.79431720680905
2.64,49.527040581151425,49.52669605173185,281.32588601704174,28.03413067120199,28.03407297375603,141.40477746335395,-6.60969837458922,-6.588098313379964,-38.6404615720159
2.65,49.80738188786344,49.80703678146941,282.7399337916753,27.968033687456096,27.96819199062223,141.0183728476338,-6.587040638033216,-6.571170275424691,-38.47125286127906
2.66,50.087062224738006,50.08671870137563,284.15011752015164,27.902163281075765,27.902480287867984,140.633660319021,-6.550754694062298,-6.539471168696893,-38.31789819768192
2.67,50.366083857548766,50.36574350425431,285.55645412334184,27.836655734135142,27.837085576181014,140.2504813370442,-6.504317211587753,-6.5048084706749085,-38.1453907374329
2.68,50.644450414890116,50.64411436001612,286.9589589367123,27.771612562019264,27.772037491474265,139.86902742966987,-6.4841793446648355,-6.478242463229447,-37.9855480234687
2.69,50.92216654051031,50.92183473493086,288.357649211009,27.706770768572614,27.70725506684197,139.4891719494352,-6.449959090320057,-6.445675796818631,-37.842942144033174
2.7,51.199234248196035,51.19890728559928,289.75254093050336,27.642271177669414,27.642798308873783,139.11074252799486,-6.420342557477129,-6.4031338686684585,-37.70339381191322
2.71,51.47565695997273,51.47533526868802,291.1436483557833,27.578067752094643,27.578766970187097,138.73370858987573,-6.377992803170493,-6.361340013619089,-37.52014319968812
2.72,51.75143763749368,51.75112293838989,292.53098544168205,27.51428782406294,27.515153570050906,138.35850715787885,-6.360573721924756,-6.348163594722529,-37.3633687102718
2.73,52.02658051573431,52.0262744740904,293.91457051326086,27.450682086843692,27.45167193410368,137.98487347077614,-6.299841932655672,-6.339452556889001,-37.20894566669121
2.74,52.30108733660275,52.30079119343144,295.2944192479686,27.387683667517134,27.38827740853479,137.61278401410922,-6.295857555451644,-6.317343498217251,-37.06426213647778
2.75,52.57496417327792,52.57467396751679,296.6705470881097,27.324725091962616,27.32510397355262,137.24214139274446,-6.249706254108479,-6.261171150853588,-36.91360095779502
2.76,52.848211424197544,52.847925007252314,298.0429685020371,27.262228029421532,27.262492262044084,136.87300538316651,-6.215929928225459,-6.233054072730762,-36.75662643531591
2.77,53.12083370449176,53.12054992987275,299.4116985558688,27.20006873013928,27.200161721316775,136.50543911881334,-6.207746928939259,-6.193660523642793,-36.625969173492884
2.78,53.39283439179315,53.39255154708592,300.77675294705693,27.137991260849887,27.138225116080346,136.1391794270784,-6.194087510149346,-6.165146316531291,-36.493870359903745
2.79,53.66421430440165,53.663933798246724,302.1381447413277,27.076050385748392,27.076573652915034,135.77424072347935,-6.147482552867332,-6.126822929340327,-36.324680155130984
2.8,53.934974808259135,53.93469953477587,303.49588714856253,27.01457556021972,27.01530542362163,135.41099392192805,-6.122134735166801,-6.111667918693085,-36.173197977548426
2.81,54.205120563861335,54.20485258901209,304.8499970877818,26.95335421286805,26.9541887444347,135.04926194215258,-6.0805420001668855,-6.0710634264874646,-36.04896923311098
2.82,54.47465410599001,54.47439447645644,306.2004897072033,26.892548792866382,26.893478110169823,134.68877224982148,-6.05435949378998,-6.056248282918903,-35.895545881724196
2.83,54.743579593918675,54.74332925755814,307.5473774297015,26.83200519792848,26.832915627340636,134.32981679100425,-6.030694521088191,-6.011445549587563,-35.744531249646165
2.84,55.01189964589796,55.01165841383155,308.89067559761156,26.7716982527176,26.772801171844762,133.9723714785078,-5.986870666537716,-5.998094372223498,-35.60698463277951
2.85,55.27961662842514,55.279386425549994,310.2303993123966,26.711829546052222,26.712820228122528,133.61630163218,-5.964313616222283,-5.9604932236347565,-35.47906222345561
2.86,55.54673492388566,55.54651462783122,311.5665623287184,26.65218640989,26.65321529588618,133.26151100994545,-5.955608763596742,-5.946336568444094,-35.32588199903158
2.87,55.81325678798456,55.81304678079008,312.8991774388179,26.59263032225403,26.59375193020174,132.90825218995514,-5.927354856582875,-5.927921138259258,-35.18488279059716
2.88,56.0791830912071,56.078984300092095,314.2282599607175,26.5333567736882,26.53447271881915,132.55640336204917,-5.890082910807574,-5.8985237374146315,-35.05698315508157
2.89,56.34451665894398,56.34432902728029,315.55382399433796,26.474455944580125,26.475487481445004,132.20583353049835,-5.852295296730344,-5.851690050592431,-34.91916270794767
2.9,56.60926121838978,56.60908390209474,316.87588232964293,26.41593299161282,26.41697058093908,131.85664190341888,-5.829297199082664,-5.823116726184746,-34.75819804845179
2.91,56.87342054830591,56.87325360790413,318.19444874867713,26.357640019621993,26.35873941367723,131.50905992293437,-5.801073190293686,-5.810129673503565,-34.64378872065986
2.92,57.13699694850213,57.1368410020409,319.50953934790647,26.299629287719057,26.300638116942196,131.16262203572776,-5.788135379121315,-5.775421927139726,-34.51045163090056
2.93,57.39999324137932,57.39984738321032,320.8211655682637,26.241747933927844,26.242883897670797,130.81751751941877,-5.737280642131242,-5.767162265077189,-34.37047707551214
2.94,57.6624107207186,57.66227622218703,322.12934074345793,26.18437512750653,26.185212275020024,130.47381274866365,-5.73225981804599,-5.718707064799352,-34.24492178724893
2.95,57.92425447199366,57.92412834493723,323.4340788709446,26.127052529326072,26.12802520437203,130.13136353079116,-5.67960561829001,-5.705432480146971,-34.1110520114468
2.96,58.185524997286926,58.18540859698095,324.7353925062525,26.07025647314317,26.07097087957056,129.7902530106767,-5.654777072925942,-5.652289517588303,-33.96283123219444
2.97,58.44622756201836,58.44611830577666,326.0332950363592,26.01370870241391,26.014447984394675,129.45062469835477,-5.643634384539871,-5.618660423022575,-33.84345640924874
2.98,58.7063646490425,58.7062627856206,327.32780128334275,25.957272358568513,25.958261380164448,129.11219013426228,-5.623731691758792,-5.6162424561443895,-33.704090299896436
2.99,58.96593737262818,58.96584539942225,328.6189231846854,25.901035041650925,25.902098955603005,128.77514923126333,-5.5892554473299425,-5.595323492600718,-33.57579183295063
3.0,59.22494772304469,59.22486638897828,329.906674676998,25.845142487177625,25.846145720676997,128.43939131293382,-5.549452792303798,-5.549017238502976,-33.45524396768096
3.01,59.48339914791647,59.48332784618505,331.1910685901274,25.789647959254587,25.790655548291966,128.10483887325702,-5.5511763208692635,-5.542825472738954,-33.33099900248489
3.02,59.74129562750902,59.74123440166797,332.47211697885996,25.734136196045895,25.735227293564577,127.77152888323218,-5.513458598388511,-5.5101687243064275,-33.191815052013176
3.03,59.998636989469475,59.998586674603615,333.7498322676923,25.67900161006201,25.680125606321514,127.43961073271204,-5.48878770089062,-5.471176888526142,-33.07578877619112
3.04,60.2554270055701,60.25538793066683,335.0242283750194,25.624113733053104,25.625413837436252,127.10885284495014,-5.451856825172021,-5.477173012768446,-32.97115711942245
3.05,60.51166814290063,60.51164206904119,336.2953169034689,25.569595164801385,25.57064210730857,126.77914127375591,-5.4347737976367885,-5.407127114942779,-32.83465983089516
3.06,60.76736409454865,60.76734849011427,337.56310831620647,25.515247426825017,25.51657083615914,126.45079467544696,-5.4047552621742385,-5.407373391088015,-32.708600641605926
3.07,61.0225165688169,61.02251419847586,338.82761626296093,25.461199874203274,25.46249710224826,126.1237086690309,-5.369074656851437,-5.403144826545855,-32.59215863133224
3.08,61.27712856755893,61.27713916949834,340.08885334965123,25.40750912763476,25.4084656539828,125.79778708271758,-5.362579504286437,-5.3664318541942,-32.47425122993975
3.09,61.53120365883528,61.53122382603817,341.3468312204784,25.353883332591895,25.35480133544086,125.47304457041818,-5.356172679196771,-5.340356268004292,-32.34886612792324
3.1,61.7847424921612,61.78477183939258,342.6015616661826,25.300321605799926,25.30139777276082,125.14955590913895,-5.301375721130437,-5.306565879709118,-32.22585189815893
3.11,62.0377457082192,62.03778581712019,343.853057225274,25.247307848588623,25.248332113963727,124.82729739015737,-5.2889387634121,-5.294524870225076,-32.12968208182557
3.12,62.29021878670508,62.29026913825982,345.10133019917555,25.194418460954502,25.195386865261476,124.50600056933911,-5.2637197760645345,-5.270554897552324,-31.990495685504527
3.13,62.542162971314625,62.54222300691244,346.34639020486895,25.141781263193856,25.14268131628595,124.18609561248407,-5.231524686153103,-5.249312516020928,-31.874916685267763
3.14,62.79358078394656,62.793649820075295,347.5882511609938,25.089466016332324,25.090188191125744,123.86734644563138,-5.199209131638234,-5.236933129876945,-31.761368465045237
3.15,63.044475444109885,63.04455170198655,348.82692462545015,25.03747392501594,25.037818859826974,123.54973276098093,-5.180719551697905,-5.200118470712757,-31.654547364572846
3.16,63.29485018336005,63.29492989058482,350.06242195306,24.985666729498963,24.985817675119847,123.2331872873352,-5.165261808599412,-5.173566171909042,-31.53196095126203
3.17,63.54470685065504,63.544788067336015,351.29475382593336,24.934014111412967,24.934082013400758,122.91786767782258,-5.141882732592307,-5.159801573117359,-31.40140291383896
3.18,63.79404699176917,63.79412888747002,352.5239325027116,24.882595284087046,24.882483997669585,122.6038536486842,-5.133960398201134,-5.1172079284772725,-31.29667380628414
3.19,64.04287294461004,64.04295372744672,353.74997103919844,24.831255680105034,24.831311918384813,122.29088691062135,-5.105634705847775,-5.102134314921896,-31.183212675810648
3.2,64.29118550141109,64.29126684663056,354.97287990830466,24.780199333046557,24.780290575235593,121.97905478386325,-5.0807821211060045,-5.088392668045065,-31.088532632344403
3.21,64.53898749474156,64.53906975238291,356.1926704561433,24.729391511835498,24.72940664855514,121.6681694575398,-5.021916741862283,-5.06720138790856,-30.973165873082756
3.22,64.78628140985991,64.78636381886847,357.4093521507187,24.679172344416877,24.678734634676054,121.35843779880898,-5.060194869788488,-5.045937695133831,-30.850975624467075
3.23,65.03307313330409,65.03315116521523,358.62293652870676,24.62857039571899,24.628275257724717,121.0499280425643,-5.019474574984561,-5.011562469012529,-30.770000739509005
3.24,65.27935883726127,65.27943391779247,359.8334358091324,24.578375649969146,24.57815963303459,120.74222803516922,-4.991598836797731,-5.002270137021226,-30.631862183272712
3.25,65.52514259376096,65.52521551412282,361.0408580894841,24.52845966160117,24.528136931664378,120.43590941333649,-4.973510346466614,-4.97641594412491,-30.544854079381704
3.26,65.77042719037698,65.77049688343946,362.24521718361746,24.478724558136502,24.47837277222313,120.13046087254267,-4.9632985410208095,-4.9614355869253695,-30.427989458598354
3.27,66.01521443595834,66.0152806111617,363.4465217923429,24.429091572726293,24.428758416353876,119.82618097795668,-4.936339790674942,-4.92617140146323,-30.305440224527192
3.28,66.2595053516856,66.25956819532524,364.64478360212246,24.379728174819544,24.379496702339242,119.52312657571142,-4.918012565789926,-4.898019279293064,-30.206436004519432
3.29,66.5033026334338,66.50336316234863,365.8400148678796,24.330548049161646,24.33051650954631,119.22106221566622,-4.876509682276946,-4.880358939860364,-30.09409269452541
3.3,66.74660811392542,66.7466683274441,367.03222549003624,24.281782952338876,24.281712920147708,118.92012128872096,-4.865707320163235,-4.872147352568357,-29.989819458101337
3.31,66.98942594344881,66.98948545664558,368.22142670292345,24.233125879137244,24.232991446622023,118.62022309413994,-4.852094855856824,-4.849774094713058,-29.88690142315324
3.32,67.23175720224017,67.23181537111181,369.4076289338648,24.184604930578676,24.184493705674893,118.32135407990842,-4.826957944657324,-4.819926217435722,-29.79495656933362
3.33,67.47360325154597,67.47366030816856,370.59084247466393,24.136335351132104,24.136294443500535,118.02340451421509,-4.811003569445547,-4.7978264332432685,-29.69590401580063
3.34,67.71496660505728,67.71502325260357,371.77107651980606,24.088225315437647,24.088316179168103,117.72644547405709,-4.773310720771423,-4.788495665001353,-29.576817346955895
3.35,67.95584885821167,67.95590641439526,372.9483409745466,24.04049220822993,24.04043122251809,117.43067730058753,-4.756299346900912,-4.75620849530826,-29.49819022331441
3.36,68.19625378029397,68.19631072662044,374.1226477475525,23.992929214760924,23.99286913756501,117.13569539835439,-4.724038772269954,-4.735137494077597,-29.385268194879796
3.37,68.43618307244158,68.43623941799609,375.29400470153604,23.945688827038225,23.945517762624235,116.8418427164056,-4.7029920856944685,-4.717366205752866,-29.28373749907933
3.38,68.67563996071196,68.67569459562233,376.4624231287001,23.898658906181282,23.898344100566707,116.5490053414148,-4.696631175828972,-4.698133157005772,-29.175909737450592
3.39,68.91462654977377,68.914678036628,377.62791318211424,23.851692594422992,23.851362768996648,116.25724624404029,-4.679631215809287,-4.676258133770465,-29.090825346520152
3.4,69.153143475718,69.15319166431797,378.7904856445546,23.8048962822649,23.80460018765894,115.96633799057508,-4.647270215845435,-4.676234945768832,-28.995198700671935
3.41,69.39119243854064,69.39123766619456,379.95014902446036,23.758423580106445,23.757837838201254,115.67638600356837,-4.640144342117424,-4.63614763925409,-28.89275409135599
3.42,69.62877667434171,69.62881604457657,381.10691288449607,23.71202213668527,23.711476361808714,115.3874584626548,-4.595229216560566,-4.6174219542288,-28.780287256498987
3.43,69.86589689570856,69.86593080819465,382.2607874691226,23.666069844519665,23.665302142266427,115.09965559008981,-4.597479304474528,-4.596391539063194,-28.671409355685718
3.44,70.10255759415375,70.10258382961732,383.4117840250235,23.62009505147492,23.619338226875794,114.81294149653296,-4.5735546768732,-4.565375513460836,-28.579678067635268
3.45,70.3387585446685,70.33877721188607,384.55991343998886,23.574359504706187,23.573684471741185,114.52714471585661,-4.566072512427953,-4.563786753345707,-28.489159775470114
3.46,70.57450213971556,70.57451405660348,385.7051848871474,23.52869877958191,23.528046604207727,114.2422531181019,-4.544627464643671,-4.539558627035815,-28.38510872608618
3.47,70.80978912751138,70.80979452264555,386.84760741832844,23.48325250493547,23.482651017937368,113.95840203084104,-4.519037179608231,-4.5106295966444465,-28.290370197808382
3.48,71.04462165256074,71.04462103282492,387.98719143863684,23.43806213313939,23.437544721970923,113.67549832886296,-4.500741543844724,-4.4878575055669145,-28.23126516555034
3.49,71.27900227389213,71.27899648004463,389.1239464219255,23.39305471770094,23.392666146915253,113.39318567720746,-4.471962688938127,-4.481455476738044,-28.116292210389613
3.5,71.51293282106914,71.51292314151378,390.25787827869755,23.34833509081156,23.347851592147872,113.11202275510355,-4.465506828470029,-4.460629428811724,-28.020507871099866
3.51,71.74641617197726,71.74640165743526,391.3889985062486,23.30368002252686,23.303245297859757,112.83181767639256,-4.436302856336475,-4.460480350239408,-27.928670327203598
3.52,71.97945297220252,71.97943411041385,392.5173166830125,23.259316993963495,23.258640494357362,112.55253097312053,-4.430897750792486,-4.4191165301032225,-27.829102872066738
3.53,72.21204614214216,72.21202051535742,393.6428419927437,23.21500801645557,23.21444932905633,112.27423994439985,-4.416157874392408,-4.419154210627707,-27.734112092638533
3.54,72.44419622230672,72.44416500864799,394.7655843921877,23.170846437711646,23.170257786950053,111.99689882347347,-4.380793764232052,-4.385643794490549,-27.649334514946748
3.55,72.67590468668384,72.67586758651748,395.88555338042244,23.127038500069325,23.126401349005146,111.72040547832401,-4.372449939956853,-4.367427188871133,-27.56545961483622
3.56,72.90717507168453,72.90713160000753,397.0027574352057,23.083314000669755,23.082727077116434,111.44475088217565,-4.372745132387242,-4.352075783777338,-27.469441752905606
3.57,73.13800821169123,73.13795887077869,398.11720494402743,23.039586549345884,23.039206319278662,111.17005646464659,-4.34570246244812,-4.318952096255101,-27.38632496496872
3.58,73.36840407718469,73.36835093397147,399.2289055086739,22.996129524721404,22.996016798316113,110.8961932149969,-4.318078623582197,-4.311464271989707,-27.29113527317836
3.59,73.5983653724319,73.59831110195464,400.33786744082386,22.95294873848558,22.952902155596217,110.62328186226512,-4.276349087254373,-4.287086255448785,-27.21973883512016
3.6,73.82789485981675,73.8278401235106,401.4441002594465,22.910185247613036,22.91003129304173,110.35108447391391,-4.28918832584626,-4.2937560831168,-27.127903270479955
3.61,74.05699671229289,74.05694043644101,402.54761110418565,22.867293364354573,22.867093732210563,110.07980544120912,-4.256759964769213,-4.263689034482674,-27.027593649705636
3.62,74.28566964593644,74.28561137376312,403.64840915859776,22.82472576470688,22.824456841865736,109.80952950471206,-4.247300976993982,-4.242835154216728,-26.95194917413837
3.63,74.5139169035835,74.51385594218178,404.7465044536449,22.78225275493694,22.78202849032357,109.54001001297068,-4.246435538227356,-4.2193958630695025,-26.857706859991612
3.64,74.74173943113287,74.74167622708501,405.8419045537746,22.73978839955467,22.739834531692875,109.27143294437077,-4.195959414467053,-4.20269938000324,-26.78193073371306
3.65,74.96913731512842,74.96907457240194,406.9346188832183,22.697828805409998,22.697807537892842,109.00361363703364,-4.199299720751543,-4.181687608732202,-26.678863805941834
3.66,75.19611560318252,75.19605264778086,408.02465501958864,22.655835808202482,22.65599066180552,108.73682499897421,-4.175702349288539,-4.175988405049748,-26.613368389559717
3.67,75.42267396126455,75.42261255439891,409.1120232695784,22.614078784709598,22.614230777755026,108.47069131507861,-4.154406408111568,-4.155405384428847,-26.536794192090486
3.68,75.64881474911165,75.64875486217646,410.1967301827292,22.572534720628482,22.57267672391074,108.20532337315771,-4.1441468066956455,-4.146691549092424,-26.437827653232933
3.69,75.87454009631793,75.87448162941557,411.2787834164608,22.531093252561526,22.531209808419813,107.94094509662538,-4.130085037373548,-4.116119380098424,-26.353273449318962
3.7,76.09985102884355,76.09979372749977,412.358192867427,22.489792402187792,22.49004861461883,107.67741236213219,-4.102655014178212,-4.092627466072141,-26.274342276142132
3.71,76.32474895286542,76.32469421364596,413.4349669910483,22.44876585204601,22.44912233995811,107.41466893937077,-4.089036007958807,-4.081677840879977,-26.189031995547264
3.72,76.54923661138588,76.54918543704554,414.50911368044206,22.407875491966422,22.40830556154931,107.1527786194153,-4.086861246502495,-4.072430015676225,-26.117303206233515
3.73,76.77331536630554,76.77326849266103,415.5806414666362,22.367006879501396,22.367581261392548,106.89160558735297,-4.059819038461746,-4.034880986493108,-26.043521355224605
3.74,76.99698543510056,76.99694430527495,416.6495575225098,22.32640868911678,22.327232451527617,106.63117037380073,-4.032407521533914,-4.048342413216642,-25.94867582461977
3.75,77.22024952199172,77.22021662979023,417.7158692262478,22.28608461390144,22.28674902739545,106.37168361555453,-4.023387293135425,-4.0275186831589505,-25.848976028362852
3.76,77.44311036813073,77.44308412006419,418.7795860624033,22.245850740970088,22.246473840563862,106.11319385527091,-3.9799977778490687,-4.005381813399793,-25.778552576755153
3.77,77.66556887554043,77.66554885846982,419.84071800095603,22.206050763191598,22.206420022429864,105.85540832950336,-3.979607751964573,-3.9762182735082616,-25.706110021632842
3.78,77.88762938317234,77.88761305869411,420.89927208425104,22.16625468567195,22.166657839694782,105.59834722928703,-3.9765415098267796,-3.959804493752716,-25.64328684689784
3.79,78.10929193002906,78.10927963709106,421.95525555654393,22.126489270573686,22.127059794757255,105.34191436081805,-3.968751566081428,-3.966865640409461,-25.54596301054445
3.8,78.33055682273479,78.33055023503863,423.0086747001521,22.086801754912873,22.08739113835316,105.0864547307126,-3.949628523981245,-3.9495790894909146,-25.472224595193868
3.81,78.55142484028391,78.55142414642216,424.0595392474592,22.04730546967306,22.04789534745825,104.83173248476066,-3.9370132834944025,-3.913741862891499,-25.3902312992121
3.82,78.77189789498064,78.77190309989675,425.10785657230684,22.007935336838116,22.008757928829336,104.57783017176854,-3.9004679809098706,-3.902298372578528,-25.307916064233705
3.83,78.99197724834902,78.99199067918504,426.15363487402453,21.968930657029016,21.96973494510355,104.3247510111262,-3.8915461799058835,-3.889400745224794,-25.23069653799195
3.84,79.2116665549193,79.21168802863608,427.1968823841358,21.930015195229956,21.9308409376513,104.07244404574628,-3.872677895036884,-3.8531246940363766,-25.142298609569526
3.85,79.4309667068716,79.43099643801258,428.23760682459323,21.891288416279586,21.89230969071094,103.82102105965059,-3.8589624289434368,-3.874327453660685,-25.091455242558055
3.86,79.64987959103439,79.64991953491969,429.27581703518973,21.85269879199015,21.85356641617433,103.570106507225,-3.831346251512569,-3.8584877338630963,-25.014980304248454
3.87,79.86840657895429,79.86845519908144,430.311518100262,21.814385329475023,21.8149815388357,103.31995670418252,-3.828891479152143,-3.8314173267208678,-24.94307879181541
3.88,80.08655043224904,80.0866050144698,431.3447176673038,21.7760964146835,21.77666736556849,103.07052591626436,-3.8312222811950183,-3.829084281595602,-24.871408022062298
3.89,80.30431139639587,80.30437168812549,432.37542292646646,21.73778419187155,21.73837652275253,102.82181183604374,-3.809373172103373,-3.805068913072782,-24.767429723372334
3.9,80.5216892383146,80.52175545335301,433.4036410448269,21.699690460150517,21.700325833621804,102.57413753881,-3.7864519134382277,-3.775268423651094,-24.710726767558512
3.91,80.7386861429161,80.73875871168923,434.429382420215,21.661825941016136,21.66257314938529,102.32703027113442,-3.7766820387626114,-3.7595572193560414,-24.647122769023095
3.92,80.95530440232626,80.95538444318308,435.45265272292636,21.62405912062851,21.624977577191732,102.08055904344418,-3.744582298692526,-3.755135067810897,-24.55273844293229
3.93,81.17154499353255,81.17163421895499,436.4734583133608,21.586613297641584,21.587426226513625,101.83503165901486,-3.7399619954448715,-3.741832210017073,-24.504707285884095
3.94,81.38741112650897,81.38750848122012,437.491808629951,21.549213677687135,21.550007904413455,101.58998458615602,-3.713843542850514,-3.7283929014390598,-24.41592863523668
3.95,81.60290326328584,81.60300856026426,438.50770847581254,21.51207524225863,21.512723975399066,101.34582529980365,-3.7119333559924286,-3.7157731184537903,-24.346534392530035
3.96,81.81802401570843,81.81813580001825,439.52116672881056,21.474955908698703,21.475566244214527,101.10235995587836,-3.704538862593496,-3.686233273246043,-24.280879173046728
3.97,82.03277357479541,82.0328914624604,440.5321903283693,21.43791052007277,21.438703911482065,100.85955116414789,-3.6838136228419476,-3.6759364370785392,-24.205647885608762
3.98,82.24715267999615,82.24727850157522,441.5407858400108,21.40107238384435,21.40194454711128,100.6174946852918,-3.675439006973948,-3.653369125708341,-24.132515169742447
3.99,82.46116340383459,82.46129794704633,442.54696078686374,21.364317993774613,21.365410855854197,100.37616953359438,-3.642660808085188,-3.6467002657330356,-24.06467752445216
4.0,82.67480658377234,82.67495205560488,443.55072248219966,21.32789138569376,21.32894385319687,100.13552275834985,-3.625391122395454,-3.6373572908846157,-23.979845259606957
4.01,82.88808549762928,82.88824149413685,444.55207770978313,21.291637474469805,21.29257028028802,99.89572430575377,-3.6276284207549,-3.635097854983073,-23.93275699928125
4.02,83.10100187237397,83.10116719693973,445.55103495284067,21.255361190262256,21.25621930173819,99.65639673576096,-3.623818468475997,-3.6088872178034825,-23.87507971325665
4.03,83.31355548427659,83.3137293899571,446.54759892019825,21.219123005577497,21.220130429560157,99.4176459386284,-3.575923854421428,-3.6081537512206947,-23.776464221686183
4.04,83.52574671433237,83.52593069425271,447.5417753795845,21.18336376703328,21.18404889204795,99.17988129641154,-3.574901990130076,-3.5746640857516407,-23.731586842459475
4.05,83.73758035200271,83.73777118317318,448.53357419254866,21.147614747131982,21.148302251190433,98.94256542798695,-3.5773362926185657,-3.5685506292163565,-23.659081605103953
4.06,83.94905649947403,83.94925420568508,449.5229998468285,21.111841384205796,21.11261674489827,98.70597461193591,-3.5589441232419152,-3.566566333567187,-23.561228895412054
4.07,84.16017491331608,84.16038037313406,450.51005959294787,21.07625194297338,21.076951081562598,98.4703623229818,-3.5360998688861707,-3.5473999573504034,-23.517330429922392
4.08,84.37093743274582,84.37114988394968,451.49476321617766,21.040890944284516,21.041477081989093,98.23518901868258,-3.5204102002912943,-3.535437581799358,-23.451303652833744
4.09,84.58134634218867,84.58156465476958,452.47711510636447,21.005686842281605,21.006122706171098,98.00067598215423,-3.514665689854545,-3.5179489464713463,-23.384512073650036
4.1,84.79140321061148,84.7916258818313,453.457121866186,20.97054018538306,20.970943216706385,97.76683086141773,-3.4963226686563864,-3.4973748910381572,-23.30523766802386
4.11,85.0011086124653,85.00133531399835,454.4347901748002,20.935576958696497,20.935969467796003,97.5337784847375,-3.4933444533857876,-3.482162059752169,-23.25904442907842
4.12,85.21046438205227,85.21069500867631,455.4101279596476,20.90064351416264,20.90114784719848,97.30118804044672,-3.48470005499358,-3.473767573797911,-23.174562446308276
4.13,85.4194708171939,85.41970648714829,456.383139840052,20.865796513612704,20.8664101714605,97.06944241598363,-3.4560036585492457,-3.483747530890496,-23.106748156977314
4.14,85.62812878233002,85.6283705888629,457.35383426421186,20.83123647702721,20.831572696151596,96.83837493441386,-3.4684938606041227,-3.436421084167325,-23.06806214102209
4.15,85.8364411471003,85.83668631582441,458.322218013556,20.79655153842117,20.797208485309923,96.60769431300365,-3.448534485519713,-3.4476065476418927,-22.98249418850437
4.16,86.04440666248452,86.0446584006775,459.288294956686,20.76206619356597,20.762732419833505,96.3778693711186,-3.4272326963261395,-3.4163805665943205,-22.954592988926585
4.17,86.25202732442018,86.25228572487585,460.25207365039716,20.72779386660271,20.72856861416756,96.14832344122934,-3.4092034590266045,-3.4308859785992616,-22.87611146462804
4.18,86.45930526308621,86.45957141101752,461.21355688480946,20.693701832012444,20.69425975438157,95.91956232658306,-3.393083555262691,-3.3891850344990657,-22.81075166125391
4.19,86.66624228140633,86.66651400856134,462.1727525080753,20.659770996459816,20.66036790403658,95.69145480997052,-3.389202139146018,-3.3700257778075993,-22.740245002484976
4.2,86.87283999137092,86.8731176876017,463.129667056175,20.625878975068357,20.626667646258504,95.46405235994567,-3.360451484316265,-3.35480494490617,-22.666787088458573
4.21,87.0790987811216,87.0793843640643,464.0843075797744,20.592274460225195,20.59311959680944,95.23738448906109,-3.3618162623972268,-3.364591746307994,-22.62654032054615
4.22,87.28502152572385,87.28531556003239,465.036681424665,20.55865629760122,20.55947367934636,95.01111908585563,-3.3433215619422234,-3.3371502752048112,-22.55979734642788
4.23,87.49060808869986,87.49091029682585,465.98679261552354,20.5252230819818,20.526102176594314,94.78552111239135,-3.320123348598021,-3.326489881648593,-22.50015846850698
4.24,87.69586031951968,87.6961713185918,466.93464782664745,20.49202184849582,20.492837277777827,94.56051952770628,-3.3234022890517543,-3.3192090700660244,-22.440055599282893
4.25,87.90078053800464,87.90109969136957,467.8802530219245,20.458787825605302,20.459645187077168,94.33611897171345,-3.3071445253444844,-3.3106769038747195,-22.36630920981248
4.26,88.10536841626069,88.10569614324034,468.8236142116416,20.425716380351858,20.426538418038422,94.11245587961533,-3.2818082176151706,-3.2795025964413034,-22.302608779352845
4.27,88.3096255800642,88.30996152742073,469.76473877043776,20.392898298175705,20.393743392074008,93.8894297918218,-3.297486132197885,-3.279011322897919,-22.257018275254143
4.28,88.51355456304596,88.51389896134147,470.703633068356,20.359923436853727,20.360953278845027,93.66685960906925,-3.2900137747924103,-3.271552486716212,-22.186739830954245
4.29,88.7171537974145,88.71750849412992,471.64030166444667,20.327023299105804,20.328237753977866,93.44499221075971,-3.2628502694620085,-3.2682987780009354,-22.138883163611528
4.3,88.92042403040556,88.9207908716697,472.57475158655427,20.294394796411183,20.295554766197856,93.22360337912359,-3.2465567058908062,-3.2488200434924286,-22.068104047437735
4.31,89.12336797836967,89.12374641933167,473.5069876203455,20.261929229352276,20.263066565762934,93.00292233864921,-3.228362529056823,-3.2260671904335383,-22.010214672249536
4.32,89.32598727066319,89.32637708498929,474.437016843732,20.22964560406171,20.230805893858598,92.78282019192672,-3.216866161177347,-3.2146807664477124,-21.93431165719336
4.33,89.5282837267038,89.52868514392787,475.3648450456513,20.197476942449935,20.19865908619412,92.56347707535478,-3.2044243776958585,-3.201622294941577,-21.88601023315335
4.34,89.7302584961283,89.73067173478981,476.29047981640485,20.165432698672976,20.166642863244704,92.34461697302325,-3.193299667319235,-3.188978634731515,-21.835390822829613
4.35,89.93191282311503,89.93233816342226,477.2139259861351,20.133499701999785,20.13475307689739,92.12626306479495,-3.191032648444806,-3.18586779636253,-21.77808488084624
4.36,90.13324782013503,90.13368569419123,478.13518861678307,20.10158937551534,20.102894398933763,91.9084822159865,-3.1423065388423455,-3.1605790986759965,-21.721083966955703
4.37,90.33426371389018,90.33471463818057,479.0542734389429,20.070166310126915,20.071288607947004,91.69127137631693,-3.141740770004139,-3.1380185136647825,-21.651952296747186
4.38,90.53496537699145,90.53542752426004,479.9711861527061,20.038748902426875,20.039908422810356,91.47475185334946,-3.140566967447242,-3.1492598336293307,-21.610765602179047
4.39,90.73535286601572,90.73582660848815,480.88593367123957,20.0073432327524,20.008415824474064,91.25864419732767,-3.134298217709897,-3.1285175740323434,-21.545577991830726
4.4,90.93542629834324,90.93591076673289,481.7985201132129,19.976000250575304,19.97713064873374,91.04318841740937,-3.1257367327322214,-3.1277504975359327,-21.481852272909396
4.41,91.135186300849,91.13568207322022,482.708951997387,19.944742883247983,19.94585314375838,90.82836989468028,-3.1200351306088194,-3.1122241484281896,-21.430734757206835
4.42,91.33463372968149,91.33514060465781,483.61723569633375,19.913542531941896,19.914730902274098,90.6140625471082,-3.105132352404514,-3.112120037630069,-21.379065553981267
4.43,91.53376915500091,91.53428791368054,484.52337632180485,19.88249120841785,19.883609701897797,90.4002718915684,-3.088235475536668,-3.095616232403184,-21.323935772536114
4.44,91.73259406708509,91.73312401069953,485.42737904072055,19.851608853662484,19.852653539573765,90.18703253384304,-3.062888202136921,-3.070476847023202,-21.28016450538608
4.45,91.93111015562171,91.93165054609527,486.329249366059,19.820979971641115,19.821948771103532,89.97423088878918,-3.0530436025019227,-3.0709227495487443,-21.214895099543373
4.46,92.12931995533812,92.1298700338063,487.2289916749469,19.790449535616098,19.791239543608043,89.76208193779375,-3.053164075627432,-3.0686449557841255,-21.16317493450332
4.47,92.32722445069427,92.32778242924238,488.12661249432483,19.759917894859825,19.760553094050202,89.55045018844872,-3.0403686830680736,-3.0480378844664697,-21.096571762130356
4.48,92.52482362964287,92.52538796018288,489.0221169962093,19.729514208029144,19.730072715205537,89.33948447082741,-3.043094005491537,-3.0350269471307496,-21.043071547869175
4.49,92.72211877172316,92.72268868733494,489.9155118409176,19.699083267974228,19.69972244573423,89.12905375534872,-3.008799333622316,-3.0221595835230772,-21.014140611534202
4.5,92.9191096044029,92.91968591179229,490.80680237847105,19.668995274638004,19.669500849899002,88.91891234923338,-3.0179866316378705,-3.0043046123878,-20.921385029608256
4.51,93.11579955714929,93.11638092029128,491.69599150196336,19.638815408321626,19.639457803775123,88.7096984989373,-2.982540414072265,-2.980307710139453,-20.867904175785903
4.52,93.31218771123251,93.31277549832903,492.58308848695276,19.608990004180903,19.609654726673728,88.50101945717944,-2.9716337139336475,-2.9814143342513617,-20.84222953715894
4.53,93.50827761127432,93.50887204559577,493.46809868152457,19.579273667041566,19.579840583331215,88.29259716180785,-2.9860440314136825,-2.9681082716211726,-20.783283094598282
4.54,93.70407034794474,93.70467045142908,494.35102465314264,19.549413226727427,19.550159500615003,88.08476433086186,-2.964339762569685,-2.965434418462077,-20.739774068783593
4.55,93.899564480212,93.90017204643523,495.2318722964513,19.51976982910173,19.52050515643038,87.87736659017402,-2.9439347609568984,-2.957345389455341,-20.684586684494565
4.56,94.09476217850302,94.09537709799953,496.11064596235303,19.490330481492162,19.49093170253583,87.67052072332908,-2.946794650623136,-2.935578992389245,-20.64359650492577
4.57,94.28966548331793,94.2902864150249,496.9873511695863,19.46086253498593,19.461575912611934,87.46408475827982,-2.931739739642519,-2.923032683394076,-20.584292220090045
4.58,94.48427410866779,94.48490217415102,497.8619920171691,19.431545137589506,19.432345585777995,87.25824183607892,-2.919691183765831,-2.9407180136859727,-20.501642034733624
4.59,94.67858956004369,94.6792256300088,498.73457443552985,19.402348225751847,19.402938405641134,87.05322541573159,-2.911950668420772,-2.916260306103993,-20.459534323609553
4.6,94.87261304230121,94.87325501406521,499.60510668968715,19.37322871906764,19.373775802580095,86.8486300724955,-2.8957189764704534,-2.8996535193709074,-20.42680093670362
4.61,95.06634532949188,95.06699277209101,500.4735929904121,19.344271529302937,19.344779267386386,86.64436206312845,-2.8973216396060932,-2.8860615146895,-20.367480635178314
4.62,95.25978804478491,95.26044056476488,501.3400366110434,19.315298312906876,19.315918652239493,86.44068725677667,-2.8765384920160115,-2.887676236259176,-20.31371694316427
4.63,95.45294102791398,95.45359975128727,502.20444348361116,19.286532927986716,19.2870418898769,86.23755008734503,-2.8624605641782033,-2.868120067949365,-20.261559481012963
4.64,95.64580635719385,95.64647017018603,503.0668189844846,19.257908322344935,19.258360689197406,86.0349344925349,-2.841082034157024,-2.8469231192911235,-20.21278312602825
4.65,95.8383854404173,95.839053777078,503.92716832940994,19.229497502003365,19.229891458004495,85.83280666127462,-2.8580986899409733,-2.8357853060067484,-20.167573483683885
4.66,96.03068041543733,96.03135269165806,504.78549639602267,19.200916515103955,19.201533604944427,85.63113092643778,-2.8324783738222026,-2.83869613983227,-20.10286000941911
4.67,96.22268958058837,96.22336802770751,505.641807705287,19.172591731365735,19.173146643546104,85.43010232634359,-2.8147692887108033,-2.835430006546385,-20.0481480280751
4.68,96.41441549790203,96.41509949414296,506.49610872855044,19.14444403847863,19.144792343480642,85.22962084606283,-2.8277385997056217,-2.792777932472824,-20.017308325647303
4.69,96.60585993828681,96.60654741757777,507.3484049370111,19.11616665248157,19.116864564155915,85.02944776280636,-2.8152637084136307,-2.815304263949306,-19.959576868271522
4.7,96.79702160481163,96.79771606321933,508.1986994146391,19.088014015397434,19.088711521516423,84.82985199412364,-2.809240701104177,-2.7869499624577934,-19.91893866651175
4.71,96.98790174496561,96.98860317843449,509.04699793458036,19.059921608386393,19.060842021891844,84.63066260745853,-2.778511597011292,-2.7789552215933035,-19.8636580262212
4.72,97.17850096104948,97.17921159865341,509.89330456065494,19.03213649241628,19.033052469675912,84.43202602719631,-2.754441648304847,-2.7856817318865517,-19.83219773536834
4.73,97.36882232597364,97.36954212335017,510.7376248209269,19.004592075933232,19.005195652357045,84.23370404984263,-2.7653897347537986,-2.7430260047962043,-19.77261947170641
4.74,97.55886824673297,97.55959407987375,511.5799618614253,18.976938178585694,18.977765392309085,84.03597785512557,-2.7370439303992273,-2.7591772125759277,-19.742143569165087
4.75,97.74863762851882,97.74937173379683,512.4203216399766,18.9495677392817,18.950173620183325,83.83855641943391,-2.7472611359310988,-2.7405381813980476,-19.68503363121401
4.76,97.93813330591163,97.93887346999867,513.258707204171,18.92209512792239,18.922768238369343,83.64170608312178,-2.721387266161414,-2.7211318306840955,-19.608374883790177
4.77,98.12735425719086,98.12810115238236,514.0951242650021,18.894881255260774,18.895556920062504,83.44562233428387,-2.727054885860283,-2.730763080814535,-19.587157841607088
4.78,98.31630306974347,98.31705672158299,514.929580488345,18.86761070640217,18.868249289254358,83.2497507558678,-2.717180577079067,-2.7441378299733548,-19.551424941637503
4.79,98.5049791768075,98.50573921447553,515.7620779959036,18.84043890063138,18.840807910954624,83.05423650645142,-2.715826639694571,-2.6849512539260516,-19.504331350198324
4.8,98.6933835658138,98.69414729358508,516.5926203609681,18.813280634234435,18.813958398415362,82.85919319294943,-2.691430418730363,-2.7044334103931424,-19.448307473768363
4.81,98.88151637215614,98.88228687756923,517.4212122928976,18.78636633004713,18.786914064311432,82.66471011821174,-2.685115296475212,-2.6950139444631684,-19.404339983074422
4.82,99.06938003545662,99.07015601821234,518.2478593940797,18.759515177082378,18.7599639248668,82.470666718381,-2.6660172406624705,-2.6653083309417833,-19.36848992496408
4.83,99.25697518722744,99.25775565746102,519.0725660612635,18.732855004675752,18.73331084155738,82.27698181913135,-2.6624237400941944,-2.664280941110696,-19.318954708813656
4.84,99.4443037372742,99.44508876587659,519.8953358794548,18.70623076727481,18.706668032146272,82.08379227204321,-2.6410078990971955,-2.6522160254633076,-19.25177324008828
4.85,99.63136604494694,99.63215544619806,520.7161738021753,18.67982068828384,18.68014587189164,81.89127453964232,-2.6446846420117307,-2.641750475488544,-19.22502277529088
4.86,99.81816425182978,99.81895690491697,521.5350865475717,18.653373841863722,18.653728367136754,81.69902431188942,-2.6194651481614817,-2.6505957114352325,-19.164395542866192
4.87,100.00469799024842,100.00549418858834,522.3520767906906,18.62717919038211,18.6272224100224,81.50738035646076,-2.652310082531586,-2.622909171298702,-19.113544653492696
4.88,100.19096978215224,100.19176641268857,523.1671505942552,18.600656089556793,18.600993318309413,81.31624490992583,-2.6169854690474046,-2.6308092601860427,-19.08865974785501
4.89,100.3769763430478,100.37777634587167,523.9803130433545,18.57448623486632,18.574685225707555,81.12535831244728,-2.6081116952766044,-2.6071291429984127,-19.038313213044113
4.9,100.56272120539646,100.56352319812873,524.7915666264789,18.548405117913553,18.54861393427757,80.93497518031684,-2.5896803674581266,-2.5999284943327123,-19.00154941027698
4.91,100.74820525657559,100.7490093374715,525.6009163782821,18.522508314238973,18.52261464933424,80.74495968621407,-2.5887870712063954,-2.6048508215717328,-18.9661476825946
4.92,100.93343033971797,100.93423548396486,526.4083659751443,18.496620443526908,18.496566141118524,80.55529820938813,-2.5834075501336233,-2.5620292942713774,-18.908980852727346
4.93,101.11839654415324,101.11920114537604,527.2139189572382,18.47078636802557,18.47094584817581,80.36620840086086,-2.5740034391449145,-2.5804356916542184,-18.862682045065817
4.94,101.3031044078335,101.3039106038578,528.0175810412468,18.44504633363412,18.445141491259267,80.17758158041019,-2.583322751610146,-2.5506280364457323,-18.814591652145793
4.95,101.48755487116985,101.48836201877039,528.8193568570509,18.41921310611802,18.41963521089481,79.98943566388873,-2.546610170614863,-2.559066489702243,-18.779036888185544
4.96,101.67174700223103,101.67255837087933,529.6192512136898,18.39374700441187,18.394044545997787,79.80164529500688,-2.564329762570872,-2.565184270680626,-18.747161045858086
4.97,101.85568447227514,101.85649881633931,530.4172676666399,18.36810370678616,18.36839270329098,79.61417368454829,-2.5348515208616633,-2.535334458886458,-18.68931561362649
4.98,102.039365509343,102.04018274337223,531.2134094034853,18.342755191577545,18.343039358702114,79.42728052841203,-2.536847405244711,-2.511614476130794,-18.659113251606772
4.99,102.22279306125877,102.22361313695924,532.0076822087694,18.3173867175251,18.317923213940805,79.24068939589596,-2.5018982655151074,-2.5009928431273036,-18.617468551240627
5.0,102.40596692843403,102.40679236909865,532.8000891027284,18.29236773486995,18.29291328550953,79.05451471038354,-2.5184319161163353,-2.5295087211197864,-18.57106077227516
5.01,102.58889060578272,102.58972150195375,533.5906342498322,18.267183415708786,18.267618198298333,78.86880410266079,-2.5201256326470802,-2.520334351258038,-18.50874682698157
5.02,102.77156243993981,102.77239768393673,534.3793222908588,18.241982159382314,18.242414854785753,78.68371663439098,-2.4915328173696483,-2.486541404757345,-18.48764560685701
5.03,102.95398226153364,102.95482183248458,535.1661594572028,18.217066831208616,18.21754944073818,78.49884017832241,-2.493258572723849,-2.4916390197725002,-18.45811439405624
5.04,103.13615292984572,103.13699732689197,535.951147858986,18.192134245481377,18.192633050540454,78.31425903438185,-2.4762767989706744,-2.4743475534650057,-18.419766526951875
5.05,103.31807427230054,103.31892365739738,536.7342904493298,18.16737147749167,18.167889575005805,78.13006136911233,-2.464106472216199,-2.461145365348198,-18.37269428238731
5.06,103.49974798707545,103.50060255314743,537.5155910630209,18.14273041276951,18.143278121352324,77.94633442628846,-2.46319693005003,-2.442595705881482,-18.328990599511933
5.07,103.68117529120315,103.68203533436096,538.2950544072838,18.11809844346901,18.11885216429351,77.76304452029333,-2.4596242220843756,-2.437794031192461,-18.292081473746265
5.08,103.86235627563784,103.8632238560039,539.0726848524868,18.093502201248164,18.094474223981585,77.58012370555588,-2.42961645401415,-2.4404422721960826,-18.22992140291339
5.09,104.04329129765031,104.04416859824371,539.8484860895423,18.06920603670802,18.070069801259624,77.39782449152675,-2.423507834995222,-2.4295295636482357,-18.19498147211352
5.1,104.22398335801739,104.22486929625632,540.6224643344576,18.044970958358068,18.045774505623143,77.21587467680561,-2.405383816543351,-2.4348880401271145,-18.14928357564173
5.11,104.40443306760098,104.40532704131255,541.3946230812256,18.020917120192635,18.021425625221873,77.0343818410492,-2.4025466953870795,-2.407892188164518,-18.12902636286165
5.12,104.5846422388029,104.58554129756476,542.1649668996362,17.996891653238766,17.997346703340227,76.85309157742059,-2.3975049254258702,-2.4058221309251993,-18.084503938882296
5.13,104.76461115533529,104.76551476459817,542.9334978154104,17.97291660398451,17.973288482030974,76.67224653803176,-2.3992096219883163,-2.3982841118198994,-18.045751260924405
5.14,104.94434032137514,104.94524764941848,543.7002202807907,17.948924507764627,17.949305640912776,76.49178902542252,-2.3730105430034563,-2.40239647230168,-17.99534000375254
5.15,105.12382956645278,105.1247407058276,544.4651381710449,17.925194402334593,17.92528167618976,76.311835625385,-2.3661249940989073,-2.380316007771212,-17.982023230281676
5.16,105.30308151047613,105.30399352258951,545.2282565272988,17.901533152393604,17.901478516112046,76.13201539308218,-2.3656100168848546,-2.37513794133796,-17.934325933228763
5.17,105.48209684200008,105.48300830775062,545.9895766812296,17.877877052224754,17.877727136698667,75.9526721337499,-2.349775629721084,-2.3668710513295124,-17.894577918036557
5.18,105.66087561252232,105.6617855791176,546.749103402567,17.854379295927544,17.85405842618537,75.77372635456953,-2.361176158516235,-2.375961336378464,-17.846238110119547
5.19,105.83941940548159,105.84032616337946,547.5068406661127,17.83076753434238,17.83029881282159,75.59526397346833,-2.3565247462184247,-2.338680244079054,-17.814754972760557
5.2,106.01772708082501,106.01862915150767,548.2627933058474,17.807202286880198,17.8069120103808,75.41711642374072,-2.3421939243274608,-2.357264449791752,-17.77176567296567
5.21,106.19579910369382,106.19669827161148,549.0169644700848,17.783780347636924,17.78333936588288,75.23939876701107,-2.3280721274417666,-2.3401272896933456,-17.73268158336485
5.22,106.37363690717018,106.37453166527031,549.7693584577548,17.760499626362506,17.759938092985948,75.06207195117742,-2.328742991438591,-2.3173507691065485,-17.690530209305162
5.23,106.5512419034338,106.55213104620017,550.5199791772666,17.73721219644812,17.736764585294882,74.88516664908437,-2.3172986616265945,-2.3138354153630303,-17.65895046794148
5.24,106.72861402539829,106.72949869205313,551.2688308437574,17.714039209831853,17.71362623114125,74.70857714440496,-2.302481246597198,-2.2957011913983205,-17.609131223053655
5.25,106.90575441749661,106.90663495436453,552.0159166152015,17.69101439736588,17.690669219227267,74.53248583217442,-2.2958200059106972,-2.3112062200712873,-17.59271532347887
5.26,107.08266456147027,107.08354164655681,552.7612414735232,17.668056197306772,17.667557157026554,74.35655867893962,-2.278494218810231,-2.296432362529016,-17.55324493290091
5.27,107.25934512344334,107.26021721812708,553.5048070603126,17.64527125511867,17.644592833401262,74.18102622961061,-2.2722183988353994,-2.282495303341455,-17.49533705097951
5.28,107.43579783599452,107.4366631464611,554.2466173226087,17.622549071130315,17.621767880367848,74.00607285910081,-2.2834597317576177,-2.2922846771538365,-17.486317855633498
5.29,107.61202332670582,107.61288082526478,554.9866780511998,17.59971447381274,17.59884503359631,73.83120968054448,-2.262730308810797,-2.271797494398856,-17.44940517497439
5.3,107.78802047144396,107.78886927560075,555.7249901480052,17.57708717072463,17.57612705865232,73.65671562879473,-2.274829175374362,-2.2617273120778716,-17.406253379999324
5.31,107.9637913431512,107.96463054618727,556.4615573042931,17.55433887897089,17.553509785531542,73.48265309499473,-2.2584907583312215,-2.24969149301703,-17.3536235253312
5.32,108.1393347319409,108.14016564404258,557.1963838352431,17.531753971387577,17.531012870601373,73.30911685974142,-2.2486472004900437,-2.2531061800895564,-17.33184812144973
5.33,108.31465227165478,108.3154757727486,557.9294750038405,17.509267499382677,17.50848180880048,73.13579837852693,-2.241132672200804,-2.2319305389734794,-17.283636519110402
5.34,108.4897449466486,108.49056059083661,558.6608329876258,17.48685617266067,17.486162503410743,72.96296201333583,-2.229231053908545,-2.220955464987451,-17.252947805037778
5.35,108.66461350837521,108.66542221587072,559.3904626077591,17.464563862121583,17.46395294876087,72.79043253528545,-2.204908121726967,-2.216561090337492,-17.238783316641634
5.36,108.83925914699643,108.84006174535833,560.1183669331119,17.442514780904315,17.441787337857495,72.61804470211904,-2.211430401348268,-2.214343452021682,-17.198206960006907
5.37,109.01368429480547,109.0144796187369,560.8445473801331,17.420400476890833,17.419643903337278,72.44606263251897,-2.212165376277507,-2.2105523396633604,-17.148211829172954
5.38,109.18788829957438,109.18867605777027,561.5690080064583,17.39827882312806,17.397538379940645,72.27458051422724,-2.214036344216201,-2.2054515210143215,-17.12176177472646
5.39,109.36187108780567,109.36265144156967,562.2917538116005,17.376138459685897,17.3754838647305,72.10336289647998,-2.1830755202099086,-2.2030253578848713,-17.076038543400465
5.4,109.53563247240253,109.53640628021697,563.0127874405654,17.354307704483798,17.353453611151654,71.93260251104597,-2.1679679198932567,-2.181301402867446,-17.022240853193644
5.41,109.70917554944737,109.70994081632848,563.7321134656759,17.332628025284865,17.33164059712298,71.76238010251403,-2.189114323002308,-2.1681938348252703,-17.02418764158209
5.42,109.88250182970022,109.88325722229972,564.449737266701,17.310736882054844,17.30995865877473,71.59213822609821,-2.1576417688203753,-2.1734033910350976,-16.976147282022165
5.43,110.05560919852077,110.05635680888747,565.165658648962,17.28916046436664,17.288224624864377,71.42237675327799,-2.1710147666346944,-2.162022598658415,-16.9527722173532
5.44,110.22850080316444,110.22923905513612,565.8798824164948,17.26745031670029,17.266604398877792,71.25284903110446,-2.168390751396304,-2.1557391008479074,-16.89978265221061
5.45,110.40117530633144,110.4019050991249,566.5924109068058,17.245766409186327,17.245047007869314,71.08385120458236,-2.1470342198092727,-2.146387056449352,-16.868941451965576
5.46,110.5736329704233,110.57435556920359,567.3032494188516,17.224296066988234,17.22358313730482,70.9151617900627,-2.1293832695613304,-2.1421701216496833,-16.82686230062172
5.47,110.74587593109318,110.74659140057663,568.0124010367522,17.203002234292622,17.202161436088325,70.74689316705648,-2.1284345965842917,-2.1239856268986848,-16.81763521662302
5.48,110.9179059534361,110.91861301493752,568.7198699684227,17.18171788832678,17.180921579819337,70.57871681489026,-2.1190174132843866,-2.114896470173979,-16.773392974029843
5.49,111.08972313231938,111.09042223073571,569.4256571365717,17.160527714193936,17.159772615117596,70.41098288514996,-2.1042331265519914,-2.134238170808729,-16.74564095826448
5.5,111.26132840946131,111.26201995688689,570.1297669654232,17.139485382928417,17.138430233409508,70.24352647556732,-2.1014707863196604,-2.1198981125719363,-16.69232171706429
5.51,111.4327232632906,111.43340425922098,570.8322022301788,17.11847067506522,17.11723125228379,70.07660325839667,-2.1080452977026995,-2.1041351573344396,-16.689411643752166
5.52,111.60390797004125,111.60457657174382,571.5329682627628,17.09739022208819,17.096189900710446,69.90970914195915,-2.105319881526481,-2.094169078154147,-16.63124955438525
5.53,111.77488187226213,111.77553847075093,572.2320653541824,17.076337023272927,17.075248209928905,69.7433966464153,-2.0977480533187522,-2.0902100416475107,-16.596691947118003
5.54,111.94564524249486,111.94629095285022,572.9294993206465,17.05535954273974,17.05434610951243,69.57742972694413,-2.0731345633808305,-2.0878174772195957,-16.582097067512525
5.55,112.11619883792225,112.11683441394534,573.6252736179159,17.03462819710593,17.033467934740234,69.411608756269,-2.0769003641921238,-2.0766731740762667,-16.545452414223664
5.56,112.28654511989332,112.28716909329275,574.3193897054786,17.01385919346401,17.01270120299947,69.24615423212677,-2.05724738950035,-2.073150146616951,-16.49897726989547
5.57,112.45668371182796,112.45729610532274,575.0118512477998,16.993286719569006,16.9919697015333,69.08116445942781,-2.0546805873093716,-2.0631159936217127,-16.481523097125596
5.58,112.62661657902365,112.62721580233807,575.7026628923941,16.972739913695914,16.97133854159708,68.91634922845655,-2.051227164556248,-2.0511388261409653,-16.45086859318046
5.59,112.7963439781606,112.79692918775405,576.3918263846787,16.952227642050353,16.95082715333567,68.75184054252475,-2.0310704750917616,-2.04704041836434,-16.39541039629687
5.6,112.96586625458112,112.9664374592874,577.079344790104,16.931916937299434,16.930356749152025,68.58788643856178,-2.051539777441288,-2.0574861471588557,-16.38270040254873
5.61,113.13518542395411,113.13574102677893,577.7652236544895,16.91140153952502,16.909781887680438,68.42405943453629,-2.0292766906158537,-2.020813652104019,-16.348947236426778
5.62,113.30429943934936,113.30483884565574,578.4494642488349,16.89110877261886,16.889573751159396,68.26056996217203,-2.031137696469446,-2.0167268274574877,-16.33204619493404
5.63,113.47321052707555,113.47373458316733,579.1320699484567,16.870797395654165,16.86940648288482,68.09724950022269,-2.0136395704571974,-2.0253628754506794,-16.277391304365864
5.64,113.6419185010321,113.64242864799617,579.8130424434589,16.850660999949593,16.849152854130313,67.93447558717902,-1.9930230090068715,-2.0137269551717285,-16.254900564801417
5.65,113.81042511103159,113.81092017653748,580.4923871993307,16.830730769859525,16.829015584578595,67.771926581531,-2.018123782940931,-2.0058300401807903,-16.240377276102066
5.66,113.97873241873019,113.97921033238326,581.170106465146,16.810549532030116,16.80895728417679,67.60952280876998,-2.001970114293232,-1.9980463955549237,-16.18928779389568
5.67,114.1468379140505,114.14729990522503,581.8462016932336,16.790529830887184,16.78897682022124,67.44762993083103,-1.9964000021637647,-1.998921611173056,-16.16354151201527
5.68,114.31474321235936,114.31518967342724,582.520677992542,16.770565830865547,16.76898760410951,67.28599451571087,-1.9830560037217035,-1.9900661819204732,-16.124924861499682
5.69,114.48244887066802,114.48287954946834,583.1935379376991,16.75073527082833,16.749086942290305,67.12474526709588,-1.9850517351519115,-1.978589408986406,-16.093941935951584
5.7,114.64995622337631,114.65037041889124,583.8647853903701,16.73088475347681,16.72930104820044,66.96380584773635,-1.9713085302303652,-1.9742523487352017,-16.076461581860848
5.71,114.81726507091108,114.81766342937324,584.5344234488475,16.711171668174508,16.70955852471309,66.80304123191775,-1.9570513195190198,-1.9598533795670272,-16.023861249299184
5.72,114.98437678759282,114.98475901462037,585.2024538611666,16.691601154979317,16.68995999091742,66.64280261942476,-1.960092131173448,-1.9493655876227525,-16.015155796281856
5.73,115.15129279914261,115.15165861452954,585.8688818873609,16.672000233667582,16.67046633504119,66.48265106146194,-1.9581528671452721,-1.941819784198141,-15.980580791889002
5.74,115.31801280147928,115.31836327787995,586.5337083979755,16.65241870499613,16.651048137199208,66.32284525354305,-1.951264528477493,-1.9345398530579552,-15.956141515324052
5.75,115.48453698852924,115.48487375925194,587.196936850511,16.632906059711356,16.63170273866863,66.16328383838982,-1.931148502247725,-1.936437792969906,-15.90368546653137
5.76,115.65086604912635,115.65119078663862,587.8585696888948,16.61359457468888,16.61233836073893,66.0042469837245,-1.9264346659064036,-1.9283696213362342,-15.89840036841504
5.77,115.81700199487324,115.81731417024601,588.518612158732,16.594330228029815,16.593054664525567,65.84526298004035,-1.9232575591376766,-1.9075194937107385,-15.857351642502739
5.78,115.98294529715353,115.98324471689126,589.1770647885324,16.575097652438437,16.57397946958846,65.68668946361532,-1.9261210703866045,-1.915670634505382,-15.826808751628139
5.79,116.14869627367791,116.14898451158714,589.8339316831687,16.55583644173457,16.554822763243404,65.52842137609905,-1.9230437186749034,-1.9153322799540045,-15.80927135465258
5.8,116.31425463809526,116.31453273921957,590.4892158969296,16.53660600454782,16.535669440443865,65.37032866255252,-1.899602629418108,-1.920613582994565,-15.777696209061325
5.81,116.47962069814074,116.47988943362401,591.1429191835551,16.51760997825364,16.516463304613918,65.21255170046192,-1.9009903695041814,-1.9026833224983255,-15.748011572411011
5.82,116.64479679792328,116.64505406667016,591.7950447005597,16.498600074558595,16.497436471388934,65.0550715847378,-1.8859807411828131,-1.8883346093982032,-15.732852888112909
5.83,116.80978279866886,116.81002843138404,592.4455954164072,16.479740267146767,16.47855312529495,64.89774305585668,-1.889827179990061,-1.8923445025561105,-15.685390164969693
5.84,116.97458020134033,116.97481396263699,593.0945728469658,16.460841995346865,16.45962968026939,64.74088915420698,-1.8795444095713643,-1.8907604232306412,-15.671866423127955
5.85,117.1391886212938,117.13941025943969,593.7419817385079,16.442046551251153,16.440722076037083,64.5841704899757,-1.8675278563565154,-1.8679428309138937,-15.63669405911668
5.86,117.3036090868063,117.30381748020005,594.3878234434077,16.423371272687586,16.422042647727945,64.42780354938454,-1.8860092467664678,-1.8572061865463743,-15.601709106510034
5.87,117.46784279953317,117.46803790667734,595.0321014789015,16.40451118021992,16.403470585862483,64.27178645831944,-1.8631039648677308,-1.85506089412337,-15.576601732227395
5.88,117.63188791133537,117.63207261253596,595.6748193434847,16.385880140571242,16.38491997692125,64.11602044099716,-1.8522206534676404,-1.8355517053857264,-15.544398503292374
5.89,117.79574671274108,117.79592181230518,596.3159795478947,16.367357934036566,16.36656445986739,63.96057645596424,-1.844895611883091,-1.849963443074153,-15.51219991870681
5.9,117.95942029208145,117.95958745690386,596.9555853124543,16.348908977917734,16.348064825436648,63.80545445677717,-1.8342478476616426,-1.8456242108942311,-15.49563730290716
5.91,118.12290938186062,118.12306810515823,597.5936398570221,16.33056649944112,16.329608583327705,63.6504980837481,-1.8353658208327084,-1.846505387304004,-15.46590598892727
5.92,118.28621504685503,118.2863641909915,598.2301448378596,16.312212841232792,16.311143529454665,63.49583902385883,-1.8281773958292447,-1.8126584632487632,-15.435802041115588
5.93,118.44933717526736,118.44947562628606,598.8651032280982,16.2939310672745,16.293016944822178,63.34148100344767,-1.81853677304283,-1.8202890121039816,-15.377587173052932
5.94,118.6122764859401,118.61240579573428,599.4985180381326,16.27574569954407,16.27481405470114,63.18770513171714,-1.8217693672826567,-1.8161871760898811,-15.378765324929994
5.95,118.77503394293554,118.77515393628128,600.1303950894497,16.257528005871244,16.25665218294024,63.033917478467835,-1.8018199726722377,-1.8074687266108496,-15.359222182414182
5.96,118.93760922299425,118.93772045811069,600.7607342642344,16.23950980614452,16.238577495674132,62.880325256643694,-1.801967101439406,-1.8013636842649072,-15.33886623724176
5.97,119.10000432105569,119.10010623306744,601.3895375168008,16.22149013513013,16.220563858831483,62.72693659427128,-1.8166223736005145,-1.8003841827705875,-15.307441725297304
5.98,119.262219222407,119.26231187165575,602.0168068827436,16.203323911394122,16.202560017003776,62.573862177018306,-1.8038568980367342,-1.802343953843342,-15.2624265565597
5.99,119.42425246152094,119.4243374718258,602.6425455045138,16.185285342413756,16.184536577465344,62.42123791145271,-1.7974211991346258,-1.7902194480740279,-15.223892644667572
6.0,119.58610531494507,119.58618283760045,603.2667578836283,16.16731113042241,16.166634382984604,62.26899898500603,-1.7750552452419668,-1.789248169122142,-15.214060359268526
6.01,119.7477784262493,119.7478491814303,603.8894478734784,16.14956057796999,16.148741901293384,62.116858381413344,-1.7756258166990242,-1.7711439863420142,-15.206123797193948
6.02,119.909274032029,119.90933660044323,604.5106164572925,16.131804319803,16.131030461429965,61.9647971434414,-1.779128908817111,-1.7704804031355508,-15.149750803763364
6.03,120.07059207522704,120.07064690505753,605.130264428727,16.114013030714826,16.113325657398608,61.813299635403766,-1.750384730417849,-1.7549051912457827,-15.154604498696905
6.04,120.23173220553419,120.23178016163152,605.748397425081,16.096509183410646,16.09577660548615,61.661753590416794,-1.760705785174855,-1.750083604649355,-15.117613126262903
6.05,120.39269729736829,120.39273792768638,606.3650149609851,16.078902125558898,16.078275769439657,61.51057745915416,-1.7751707940025048,-1.7383036740740465,-15.076737804803109
6.06,120.55348631862388,120.55352068538078,606.9801207355767,16.061150417618872,16.060892732698917,61.35981008110613,-1.7510106836395076,-1.7477549027007024,-15.065867339111135
6.07,120.71409782280007,120.71412961270777,607.5937188363878,16.04364031078248,16.04341518367191,61.20915140771502,-1.751612664260769,-1.721200896329817,-15.017711500141543
6.08,120.8745342259079,120.87456376454449,608.205810350465,16.02612418413987,16.026203174708613,61.05897429271361,-1.7335175583069942,-1.7375725889871632,-15.003227446738121
6.09,121.03479546774929,121.03482579629157,608.8164000933921,16.0087890085568,16.008827448818742,60.90894201824623,-1.71234512878052,-1.725269612678618,-14.983347103783888
6.1,121.19488335783485,121.19491407077976,609.4254895135746,15.991665557268995,15.991574752691957,60.75910854720839,-1.7054835325380762,-1.717942362146348,-14.95307560633023
6.11,121.35480001340754,121.35482981830668,610.0330805990467,15.974610721943614,15.974395329070493,60.60957779114509,-1.7087788905962442,-1.7273010545026677,-14.939868471100278
6.12,121.51454612062697,121.51457377159738,610.6391763769582,15.957522933037652,15.957122318525466,60.46017910643409,-1.7098651715703652,-1.709547699314342,-14.907389032028046
6.13,121.67412134995735,121.67414499478264,611.2437781680226,15.940424281321947,15.940026841532323,60.31110521611381,-1.7182716615242386,-1.6933837776676768,-14.882198076715621
6.14,121.83352559277057,121.83354526319796,611.8468892201837,15.923241564706705,15.923093003755646,60.162283235346656,-1.6843679736102866,-1.6953186423019975,-14.865510120145002
6.15,121.99275800841764,121.99277619323551,612.4485120525371,15.906397884970602,15.906139817332626,60.01362813414521,-1.7284490921566542,-1.7190177926433776,-14.820839625919406
6.16,122.15182198726734,122.15183759140884,613.0486483338785,15.889113394049035,15.888949639406192,59.865419737886015,-1.6807975734234042,-1.6940003476865149,-14.804056292651822
6.17,122.31071312120783,122.3107270878029,613.6473025312574,15.8723054183148,15.872009635929327,59.7173791749595,-1.6805499675113023,-1.6915962274544998,-14.785292664694136
6.18,122.46943617539097,122.46944718416219,614.244476323007,15.855499918639687,15.855093673654782,59.569526248312556,-1.67002899163046,-1.6776384922601228,-14.751226363748646
6.19,122.62799117457736,122.62799812089874,614.8401715854901,15.838799628723383,15.838317288732181,59.42201398467507,-1.6732334988554969,-1.673657565855279,-14.733536992771109
6.2,122.78637917086459,122.78638129378606,615.4343917253368,15.822067293734827,15.821580713073628,59.27467861474736,-1.6704150348018016,-1.6615186231694008,-14.699449567457215
6.21,122.94459984380194,122.9445971009168,616.0271385114843,15.80536314338681,15.804965526841933,59.12768411907279,-1.6610516699537625,-1.6536396260422601,-14.687446208238963
6.22,123.10265347523581,123.10264675618521,616.618415352675,15.788752626687272,15.78842913058151,58.9808096569904,-1.658458935985196,-1.6631212347435556,-14.653271432097988
6.23,123.26054100150269,123.26053104749103,617.2082234492449,15.77216803732742,15.771797918234075,58.83427694266942,-1.6434538217436219,-1.6770587208608676,-14.629181695735845
6.24,123.41826268187596,123.41824902667337,617.7965662186716,15.755733499109985,15.755027331025467,58.68798512571206,-1.6586024222531615,-1.6486497004395073,-14.601157363005877
6.25,123.57582001686706,123.57579929998361,618.3834460699287,15.739147474887453,15.738540834021071,58.541973552082,-1.6378573179304965,-1.6338769721130186,-14.578822879871007
6.26,123.73321149161593,123.73318470832382,618.9688658054496,15.722768901708148,15.72220206429994,58.39618532328329,-1.6287943459394536,-1.6246913588389782,-14.572541467089428
6.27,123.89043918063301,123.89040672896682,619.5528276586824,15.706480958248754,15.705955150711551,58.2504599086124,-1.6206443908421735,-1.6333097028009558,-14.535074935480514
6.28,124.0475039902155,124.04746628047394,620.1353322577686,15.690274514340333,15.689622053683541,58.105109159257594,-1.6208789272984923,-1.6407603024336186,-14.509848695529813
6.29,124.2044067353589,124.20436250101078,620.7163833493612,15.674065725067347,15.673214450659206,57.960010672302296,-1.619522570747465,-1.6020556944317017,-14.500383396102833
6.3,124.36114739260958,124.36109464551737,621.2959834560842,15.657870499359873,15.657193893714888,57.81500683834127,-1.6218120575672736,-1.614727370168289,-14.475038903113905
6.31,124.51772609760317,124.51766658445452,621.8741335244675,15.641652378784201,15.641046620013205,57.67025644931013,-1.6009211351703225,-1.6052881279021287,-14.43433413148446
6.32,124.67414262139101,124.67407705065465,622.4508360889606,15.625643167432498,15.624993738734183,57.52591310799529,-1.58662539024234,-1.6051298381469483,-14.408898224641286
6.33,124.83039905306534,124.83032698804199,623.0260952200406,15.609776913530075,15.608942440352713,57.38182412574887,-1.6065993917577088,-1.6021430531019407,-14.411706969053457
6.34,124.98649682220064,124.98641641244552,623.5999134612981,15.593710919612498,15.592921009821694,57.23770705605833,-1.605143391589122,-1.6117311329334656,-14.388114493487475
6.35,125.14243393139677,125.14234562254374,624.1722905318587,15.577659485696607,15.576803698492359,57.09382591112346,-1.586362564071168,-1.607275895527262,-14.350966653418583
6.36,125.29821052625373,125.29811365952867,624.74322879097,15.561795860055895,15.560730939537086,56.950316244589274,-1.587998391743294,-1.581316822283103,-14.32154886429286
6.37,125.45382848485428,125.45372096892403,625.3127319534159,15.545915876138462,15.544917771314255,56.807100755946344,-1.5833757885255435,-1.5769126669810283,-14.30089378498395
6.38,125.60928764361567,125.60917014663717,625.8808029609753,15.530082118253207,15.529148644644446,56.6640918180965,-1.570981428651553,-1.5818633215652835,-14.285854820487078
6.39,125.76458846479821,125.76446163308361,626.4474438791563,15.514372303966692,15.513330011428792,56.52123326989163,-1.574640606989008,-1.5555071880860858,-14.27900635314633
6.4,125.91973218783788,125.9195949331979,627.0126562118552,15.498625897896801,15.49777493954793,56.37844320636017,-1.55893259783404,-1.5576253662203559,-14.237130486165775
6.41,126.07471844681685,126.07457268259338,627.5764406439188,15.483036571918461,15.482198685885727,56.23607190149851,-1.5599016748057521,-1.5476304998650536,-14.230603414157974
6.42,126.22954881253602,126.22939466945225,628.1388013629338,15.467437555170404,15.466722380887077,56.093765867356936,-1.54923905548379,-1.5545424571145914,-14.200047860033722
6.43,126.38422318808773,126.38406189326112,628.6997390216073,15.451945164615566,15.451176956315932,55.9517653887566,-1.5588131146682416,-1.5441003108195135,-14.158842405130713
6.44,126.53874263973388,126.53857366282428,629.259256675495,15.436357033468884,15.435735953207736,55.81017696470529,-1.563231174171173,-1.5296849735560425,-14.15918022072007
6.45,126.69310621006858,126.69293102235635,629.817358445142,15.420724721727172,15.420439103472175,55.66858516249809,-1.5394971276250626,-1.5167246225134527,-14.115330767225364
6.46,126.84731345728585,126.84713541339107,630.3740442967669,15.405329750450921,15.40527185724704,55.527431854825835,-1.5094826506291767,-1.5318478046768609,-14.10056984609317
6.47,127.00136675479035,127.00118813196354,630.9293186153152,15.390234923944629,15.389953379200271,55.386426156364905,-1.514150131095786,-1.5194845777101011,-14.071026337588242
6.48,127.1552691040298,127.15508766575554,631.4831828768788,15.375093422633672,15.37475853342317,55.245715892989026,-1.541303117141186,-1.5037881493680725,-14.06052598941329
6.49,127.30902003825614,127.30883525108977,632.0356400358087,15.359680391462259,15.35972065192949,55.105110633094895,-1.5282273396401282,-1.5201863627288756,-14.054050848614516
6.5,127.46261684217076,127.46243245760907,632.5866911421397,15.344398118065858,15.344518788302201,54.96457012460875,-1.50174724021332,-1.5095599069708192,-14.01974147283767
6.51,127.61606082335142,127.61587764549209,633.1363368433857,15.329380645663724,15.329423189232493,54.82437270988037,-1.4844255107948947,-1.5127388306660756,-13.99769674388857
6.52,127.76935462980805,127.76917187738442,633.6845805704845,15.314536390555775,15.314295800925832,54.68439574244149,-1.50551870748242,-1.506283517595928,-13.979636188875578
6.53,127.9224999937136,127.92231483539368,634.231424527909,15.299481203480951,15.299232965749873,54.54459938055273,-1.4997230325480715,-1.4721784001356608,-13.96816295195316
6.54,128.0754948057484,128.07530716505119,634.7768705217145,15.28448397315547,15.284511181748517,54.4049177510332,-1.5044399301220641,-1.490176159246831,-13.944035817072118
6.55,128.22833964547996,128.22815227686868,635.3209196992249,15.26943957385425,15.269609420156048,54.26547739286248,-1.4631964014456307,-1.4817435876812048,-13.921927068991812
6.56,128.3810340412185,128.38084837107024,635.8635744731534,15.254807609839794,15.254791984279235,54.12625812217256,-1.457789504553865,-1.4798794080827624,-13.889068949507648
6.57,128.53358211731688,128.53339629091303,636.4048370543752,15.240229714794255,15.239993190198408,53.98736743267748,-1.4727671212844302,-1.4828949180301343,-13.861668066225747
6.58,128.68598441446483,128.68579622281501,636.944710728702,15.225502043581411,15.225164241018106,53.84875075201522,-1.472388957863235,-1.4614111171532023,-13.852846604765308
6.59,128.83823943490063,128.8380478652252,637.4831982362222,15.210778154002778,15.210550129846574,53.71022228596757,-1.4716742577830217,-1.4689171417927875,-13.816220136823834
6.6,128.99034721644065,128.99015336652369,638.0203004590818,15.196061411424948,15.195860958428646,53.57206008459933,-1.4516353946865697,-1.4769593863154415,-13.823419728729931
6.61,129.1423078305549,129.14211197610797,638.5560210599278,15.181545057478083,15.181091364565493,53.43382588731203,-1.4613527312445809,-1.4538528616699617,-13.78231591061474
6.62,129.29412328112969,129.29392288975362,639.090359318801,15.166931530165638,15.166552835948794,53.296002728205885,-1.4420530309905242,-1.4536747064638358,-13.759273467084137
6.63,129.44579259643135,129.44558841811312,639.6233193460831,15.152510999855732,15.152016088884155,53.158409993535045,-1.43694575938471,-1.456853210792718,-13.746467693313358
6.64,129.5973177064299,129.59710857900197,640.1549034460185,15.138141542261884,15.137447556776229,53.02094531660191,-1.4460875790637888,-1.446379150550239,-13.705904017782958
6.65,129.7486991218525,129.74848305456973,640.6851128991844,15.123680666471246,15.122983765270726,52.88388627642408,-1.4291385022327878,-1.4385649256907223,-13.695730073805052
6.66,129.8999359285172,129.89971289222245,641.2139517619487,15.109389281448918,15.10859811601382,52.746928975686025,-1.4264582081608597,-1.445252069455565,-13.69207417706537
6.67,130.0510298213317,130.0507988733826,641.7414210517055,15.09512469936731,15.094145595319263,52.61000823391537,-1.43007212556535,-1.4227632867603701,-13.669486776954562
6.68,130.20198106832538,130.2017403293358,642.2675211340446,15.080823978111656,15.07991796245166,52.473313366145824,-1.4264767350373344,-1.4343012953931547,-13.658792811604398
6.69,130.3527893081065,130.35253950896032,642.7922542677061,15.066559210761282,15.065574949497728,52.33672543802978,-1.405104466228619,-1.4152780188736143,-13.611517577130657
6.7,130.5034549002141,130.5031952584553,643.3156215220864,15.052508166098995,15.051422169308992,52.20061026225847,-1.4236933165635433,-1.401065161271795,-13.60174762414737
6.71,130.6539799818751,130.6537094801484,643.8376276247091,15.03827123293336,15.037411517696274,52.064592786016995,-1.4103818966032855,-1.4103489377229732,-13.577785754374577
6.72,130.80436269420443,130.80408359532535,644.3582735525692,15.024167413967326,15.023308028319045,51.92881492847325,-1.4039208423736529,-1.4112073947997774,-13.566681901546243
6.73,130.9546043683441,130.95431667560854,644.877561701854,15.01012820554359,15.009195954371048,51.79314810945779,-1.3939944896640821,-1.3847324561711924,-13.563534280344333
6.74,131.10470565039952,131.10440863515225,645.3954931829486,14.996188260646948,14.995348629809335,51.65751276665434,-1.4057752040236302,-1.3908422342523403,-13.538971314506691
6.75,131.254667533006,131.25436212145036,645.9120683106152,14.982130508606712,14.981440207466813,51.522123053509276,-1.3743195449511552,-1.385212964803037,-13.51722468018027
6.76,131.40448883809208,131.40417652352502,646.4272895411502,14.9683873131572,14.967588077818782,51.386950806707475,-1.3634373521342873,-1.3969526526683944,-13.495020310324202
6.77,131.55417271122366,131.5538524043032,646.9411590492173,14.954752939635856,14.953618551292097,51.25200060360423,-1.3849445744949815,-1.3798558235949239,-13.464205326877787
6.78,131.70372024062002,131.70338858981611,647.4536790552534,14.940903493890907,14.939819993056147,51.11735855033545,-1.3846982364963434,-1.3824566092895196,-13.46166608996617
6.79,131.85312927555893,131.8527867897467,647.9648526407567,14.927056511525944,14.925995426963253,50.98274188943579,-1.3659404510763034,-1.3733880698978214,-13.43435460033142
6.8,132.0023998406742,132.00204674401633,648.4746800596511,14.91339710701518,14.912261546264274,50.84839834343248,-1.3783132102485867,-1.3629520217824427,-13.406081481575875
6.81,132.15153381174434,132.15116935947896,648.9831640430854,14.899613974912695,14.89863202604645,50.71433752861672,-1.3553453830816127,-1.349876961044245,-13.40247438697061
6.82,132.30052995149347,132.30015567973942,649.4903074183716,14.886060521081879,14.885133256436006,50.58031278474701,-1.3616613094356835,-1.3555100172381307,-13.375136170004488
6.83,132.4493905567043,132.44900701230378,649.996110546219,14.872443907987522,14.871578156263626,50.446561423046965,-1.3615239178123644,-1.3441541475885634,-13.356113241526103
6.84,132.59811499578416,132.5977227938664,650.5005761604496,14.858828668809398,14.85813661478774,50.313000290631706,-1.3596086618489134,-1.3359140162893097,-13.345899507505626
6.85,132.74670328247225,132.7463041600143,651.0037061633559,14.845232582190908,14.844777474624848,50.179541295556646,-1.3546012294944603,-1.3307615673165232,-13.332640844998512
6.86,132.89515560829417,132.89475193476054,651.5055015763114,14.831686569895963,14.831469858951683,50.046214887106665,-1.3460773399530446,-1.3240862852601059,-13.283380842987007
6.87,133.04347247399315,133.04306663335007,652.0059637251825,14.818225796496431,14.818228996099082,49.91338107867679,-1.3329477210354495,-1.3271286384236622,-13.285989552539013
6.88,133.19165473195812,133.19124892331106,652.5050975359693,14.804896319286076,14.804957709714845,49.7805211831514,-1.3331521530894945,-1.3206604661661103,-13.28050617254779
6.89,133.33970369515097,133.3392985004082,653.0029027478008,14.79156479775518,14.791751105053184,49.64771612142592,-1.3145594487384282,-1.3154725174200563,-13.247054233015842
